expName,curec_ID,session_nr,date,end_date,participant,age,gender,gripper_baseline,max_effort_calibration_1,max_effort_calibration_2,max_effort_calibration_3,max_effort,max_effort_baseline_corrected,trial_count,reward_offer,next_reward_offer,reward_earned,total_reward,effort_offer,next_effort_offer,effort_expended,effort_trace,estimated_k,estimated_net_value,participant_response,participant_choice_response_time,participant_effort_response_time
pgACC-TUS-staircase,,1,2024-02-13_11h43.05.255,None,02,,,-0.0665283203125,2.4460274832589284,2.5502522786458335,2.0050048828125,2.277628580729167,2.344156901041667,0,18,None,0,0,6,None,None,"[0.32623291015625, 0.40252685546875, 0.51055908203125, 0.660400390625, 0.72540283203125, 0.9051513671875, 1.064453125, 1.10565185546875, 1.2359619140625, 1.3214111328125, 1.42486572265625, 1.4886474609375, 1.5423583984375, 1.61102294921875, 1.7041015625, 1.74102783203125, 1.7303466796875, 1.817626953125, 1.99066162109375, 2.1136474609375, 2.31475830078125, 2.45025634765625, 2.45941162109375, 2.47314453125, 2.4847412109375, 2.44842529296875, 2.4237060546875, 2.38250732421875, 2.249755859375, 2.20916748046875, 2.2314453125, 2.2259521484375, 2.20428466796875, 2.2186279296875, 2.0965576171875, 2.14141845703125, 2.10235595703125, 2.01568603515625, 2.0404052734375, 1.98516845703125, 1.93817138671875, 2.0220947265625, 2.06268310546875, 2.1002197265625, 2.0458984375, 1.98760986328125, 1.99310302734375, 1.937255859375, 0.30303955078125, 1.2371826171875, 1.85791015625, 2.10418701171875, 2.25677490234375, 2.43804931640625, 2.4859619140625, 2.529296875, 2.640380859375, 2.4810791015625, 2.50640869140625, 2.4884033203125, 2.46826171875, 2.4609375, 2.50396728515625, 2.53997802734375, 2.5018310546875, 2.4298095703125, 2.3968505859375, 2.28607177734375, 2.2430419921875, 2.22015380859375, 2.2698974609375, 2.39410400390625, 2.43621826171875, 2.3504638671875, 2.2442626953125, 2.2015380859375, 0.26824951171875, 0.582275390625, 1.131591796875, 1.73309326171875, 1.99462890625, 2.11822509765625, 2.10052490234375, 2.07855224609375, 2.03155517578125, 2.06268310546875, 2.03277587890625, 1.89697265625, 1.77520751953125, 1.63970947265625, 1.60858154296875, 1.65191650390625, 1.676025390625, 1.93572998046875, 2.07763671875, 2.093505859375, 1.9659423828125, 1.84295654296875, 1.67633056640625, 1.5887451171875, 1.60186767578125, 1.63055419921875, 1.57562255859375, 1.56036376953125, 1.6204833984375, 1.5936279296875, 1.56768798828125, 1.5643310546875, 1.5826416015625, 1.43096923828125, 1.3031005859375]",0.5,0.0,None,None,None
pgACC-TUS-staircase,,1,2024-02-13_11h43.05.255,None,02,,,-0.0665283203125,2.4460274832589284,2.5502522786458335,2.0050048828125,2.277628580729167,2.344156901041667,1,18,23,18,18,6,7,7.022331397945511,"[0.0091552734375, 0.0079345703125, 0.0079345703125, 0.0079345703125, 0.00823974609375, 0.008544921875, 0.0091552734375, 0.0091552734375, 0.00823974609375, 0.0091552734375, 0.0091552734375, 0.0091552734375, 0.00946044921875, 0.00946044921875, 0.00885009765625, 0.00885009765625, 0.008544921875, 0.0079345703125, 0.008544921875, 0.008544921875, 0.0091552734375, 0.00823974609375, 0.00885009765625, 0.008544921875, 0.008544921875, 0.00885009765625, 0.009765625, 0.00946044921875, 0.00946044921875, 0.01068115234375, 0.01251220703125, 0.020751953125, 0.020751953125, 0.0299072265625, 0.0335693359375, 0.0341796875, 0.0341796875, 0.037841796875, 0.04058837890625, 0.042724609375, 0.045166015625, 0.045166015625, 0.0555419921875, 0.0616455078125, 0.0714111328125, 0.0714111328125, 0.079345703125, 0.089111328125, 0.10101318359375, 0.13641357421875, 0.13641357421875, 0.17242431640625, 0.20904541015625, 0.242919921875, 0.242919921875, 0.264892578125, 0.29937744140625, 0.34393310546875, 0.41595458984375, 0.41595458984375, 0.48583984375, 0.55877685546875, 0.66436767578125, 0.7452392578125, 0.7452392578125, 0.8837890625, 0.95794677734375, 1.08184814453125, 1.08184814453125, 1.12701416015625, 1.19873046875, 1.25946044921875, 1.25946044921875, 1.36138916015625, 1.43280029296875, 1.43280029296875, 1.470947265625, 1.470947265625, 1.5179443359375, 1.5179443359375, 1.5179443359375, 1.5179443359375, 1.58721923828125, 1.58721923828125, 1.60736083984375, 1.60736083984375, 1.58935546875, 1.58935546875, 1.5472412109375, 1.5472412109375, 1.5472412109375, 1.5472412109375, 1.54510498046875, 1.54510498046875, 1.5667724609375, 1.5667724609375, 1.5484619140625, 1.5484619140625, 1.5118408203125, 1.5118408203125, 1.5118408203125, 1.5118408203125, 1.5093994140625, 1.5093994140625, 1.552734375, 1.552734375, 1.552734375, 1.552734375, 1.4947509765625, 1.4947509765625, 1.45721435546875, 1.45721435546875, 1.45721435546875, 1.45721435546875, 1.44927978515625, 1.44927978515625, 1.4495849609375, 1.4495849609375, 1.448974609375, 1.448974609375, 1.448974609375, 1.448974609375, 1.4404296875, 1.4404296875, 1.45660400390625, 1.45660400390625, 1.478271484375, 1.478271484375, 1.4935302734375, 1.4935302734375, 1.4935302734375, 1.4935302734375, 1.495361328125, 1.495361328125, 1.49505615234375, 1.49505615234375, 1.50634765625, 1.50634765625, 1.50634765625, 1.50634765625, 1.5374755859375, 1.5374755859375, 1.549072265625, 1.549072265625, 1.54815673828125, 1.54815673828125, 1.54815673828125, 1.54815673828125, 1.566162109375, 1.566162109375, 1.59149169921875, 1.59149169921875, 1.59088134765625, 1.59088134765625, 1.58233642578125, 1.58233642578125, 1.58233642578125, 1.58233642578125, 1.59576416015625, 1.59576416015625, 1.62567138671875, 1.62567138671875, 1.62811279296875, 1.62811279296875, 1.62811279296875, 1.62811279296875, 1.61285400390625, 1.61285400390625, 1.6009521484375, 1.6009521484375, 1.597900390625, 1.597900390625, 1.597900390625, 1.597900390625, 1.59271240234375, 1.59271240234375, 1.5863037109375, 1.5863037109375, 1.5850830078125, 1.5850830078125, 1.5875244140625, 1.5875244140625, 1.5875244140625, 1.5875244140625, 1.59088134765625, 1.59088134765625, 1.59271240234375, 1.59271240234375, 1.58660888671875, 1.58660888671875, 1.58660888671875, 1.58660888671875, 1.58355712890625, 1.58355712890625, 1.5875244140625, 1.5875244140625, 1.59942626953125, 1.59942626953125]",0.5,0.0,accepted,4.344510899856687,2.2413294001016766
pgACC-TUS-staircase,,1,2024-02-13_11h43.05.255,None,02,,,-0.0665283203125,2.4460274832589284,2.5502522786458335,2.0050048828125,2.277628580729167,2.344156901041667,2,23,21,23,41,7,7,8.425189816882536,"[0.025634765625, 0.02532958984375, 0.0262451171875, 0.0262451171875, 0.02716064453125, 0.02685546875, 0.02685546875, 0.028076171875, 0.029296875, 0.0299072265625, 0.0299072265625, 0.030517578125, 0.0299072265625, 0.0299072265625, 0.02960205078125, 0.02960205078125, 0.03021240234375, 0.03021240234375, 0.03021240234375, 0.029296875, 0.02899169921875, 0.03143310546875, 0.03143310546875, 0.032958984375, 0.0341796875, 0.03631591796875, 0.0408935546875, 0.0408935546875, 0.04730224609375, 0.05523681640625, 0.06805419921875, 0.06805419921875, 0.084228515625, 0.09765625, 0.11993408203125, 0.11993408203125, 0.1702880859375, 0.23345947265625, 0.2886962890625, 0.2886962890625, 0.39306640625, 0.5316162109375, 0.6793212890625, 0.7952880859375, 0.7952880859375, 0.94451904296875, 1.134033203125, 1.251220703125, 1.251220703125, 1.4154052734375, 1.5179443359375, 1.60247802734375, 1.60247802734375, 1.68060302734375, 1.68060302734375, 1.68060302734375, 1.68060302734375, 1.80450439453125, 1.80450439453125, 1.8890380859375, 1.8890380859375, 1.95648193359375, 1.95648193359375, 1.95648193359375, 1.95648193359375, 2.01446533203125, 2.01446533203125, 2.06756591796875, 2.06756591796875, 2.1185302734375, 2.1185302734375, 2.1185302734375, 2.1185302734375, 2.1368408203125, 2.1368408203125, 2.158203125, 2.158203125, 2.197265625, 2.197265625, 2.1844482421875, 2.1844482421875, 2.1844482421875, 2.1844482421875, 2.1697998046875, 2.1697998046875, 2.18048095703125, 2.18048095703125, 2.18658447265625, 2.18658447265625, 2.18658447265625, 2.18658447265625, 2.1417236328125, 2.1417236328125, 2.13226318359375, 2.13226318359375, 2.1417236328125, 2.1417236328125, 2.14569091796875, 2.14569091796875, 2.14569091796875, 2.14569091796875, 2.13348388671875, 2.13348388671875, 2.088623046875, 2.088623046875, 2.081298828125, 2.081298828125, 2.0904541015625, 2.0904541015625, 2.0904541015625, 2.0904541015625, 2.07794189453125, 2.07794189453125, 2.0538330078125, 2.0538330078125, 2.0538330078125, 2.0538330078125, 2.05078125, 2.05078125, 2.06298828125, 2.06298828125, 2.0556640625, 2.0556640625, 2.0330810546875, 2.0330810546875, 2.0330810546875, 2.0330810546875, 2.01171875, 2.01171875, 1.99249267578125, 1.99249267578125, 1.94671630859375, 1.94671630859375, 1.93695068359375, 1.93695068359375, 1.93695068359375, 1.93695068359375, 1.9384765625, 1.9384765625, 1.9281005859375, 1.9281005859375, 1.8792724609375, 1.8792724609375, 1.8792724609375, 1.8792724609375, 1.86248779296875, 1.86248779296875, 1.87347412109375, 1.87347412109375, 1.90185546875, 1.90185546875, 1.87896728515625, 1.87896728515625, 1.87896728515625, 1.87896728515625, 1.8463134765625, 1.8463134765625, 1.85821533203125, 1.85821533203125, 1.865234375, 1.865234375, 1.865234375, 1.865234375, 1.86737060546875, 1.86737060546875, 1.88079833984375, 1.88079833984375, 1.91375732421875, 1.91375732421875, 1.91375732421875, 1.91375732421875, 1.91680908203125, 1.91680908203125, 1.9189453125, 1.9189453125]",0.4067997598160582,-1.5,accepted,3.1876625001896173,1.8514029998332262
pgACC-TUS-staircase,,1,2024-02-13_11h43.05.255,None,02,,,-0.0665283203125,2.4460274832589284,2.5502522786458335,2.0050048828125,2.277628580729167,2.344156901041667,3,21,25,21,62,7,8,7.905314872711031,"[0.00335693359375, 0.00335693359375, 0.0048828125, 0.00518798828125, 0.006103515625, 0.006103515625, 0.00640869140625, 0.0067138671875, 0.00701904296875, 0.00701904296875, 0.0067138671875, 0.00640869140625, 0.00640869140625, 0.00762939453125, 0.00762939453125, 0.00762939453125, 0.01220703125, 0.0152587890625, 0.01922607421875, 0.01922607421875, 0.02197265625, 0.02685546875, 0.02685546875, 0.032958984375, 0.0360107421875, 0.03997802734375, 0.0518798828125, 0.0518798828125, 0.07415771484375, 0.09918212890625, 0.1287841796875, 0.1287841796875, 0.146484375, 0.21728515625, 0.29144287109375, 0.29144287109375, 0.37567138671875, 0.513916015625, 0.604248046875, 0.604248046875, 0.71136474609375, 0.897216796875, 1.03485107421875, 1.138916015625, 1.138916015625, 1.24114990234375, 1.35467529296875, 1.42974853515625, 1.42974853515625, 1.50787353515625, 1.6162109375, 1.6162109375, 1.689453125, 1.689453125, 1.73248291015625, 1.73248291015625, 1.73248291015625, 1.73248291015625, 1.78619384765625, 1.78619384765625, 1.820068359375, 1.820068359375, 1.82342529296875, 1.82342529296875, 1.82342529296875, 1.82342529296875, 1.817626953125, 1.817626953125, 1.83929443359375, 1.83929443359375, 1.84814453125, 1.84814453125, 1.851806640625, 1.851806640625, 1.851806640625, 1.851806640625, 1.88690185546875, 1.88690185546875, 1.9232177734375, 1.9232177734375, 1.87744140625, 1.87744140625, 1.86126708984375, 1.86126708984375, 1.86126708984375, 1.86126708984375, 1.85272216796875, 1.85272216796875, 1.8524169921875, 1.8524169921875, 1.84112548828125, 1.84112548828125, 1.84112548828125, 1.84112548828125, 1.8328857421875, 1.8328857421875, 1.85546875, 1.85546875, 1.86187744140625, 1.86187744140625, 1.85211181640625, 1.85211181640625, 1.85211181640625, 1.85211181640625, 1.8377685546875, 1.8377685546875, 1.8304443359375, 1.8304443359375, 1.8292236328125, 1.8292236328125, 1.8292236328125, 1.8292236328125, 1.83074951171875, 1.83074951171875, 1.80938720703125, 1.80938720703125, 1.7901611328125, 1.7901611328125, 1.7901611328125, 1.7901611328125, 1.806640625, 1.806640625, 1.81915283203125, 1.81915283203125, 1.81488037109375, 1.81488037109375, 1.806640625, 1.806640625, 1.806640625, 1.806640625, 1.7987060546875, 1.7987060546875, 1.77764892578125, 1.77764892578125, 1.746826171875, 1.746826171875, 1.746826171875, 1.746826171875, 1.73492431640625, 1.73492431640625, 1.7279052734375, 1.7279052734375, 1.7254638671875, 1.7254638671875, 1.7205810546875, 1.7205810546875, 1.7205810546875, 1.7205810546875, 1.7352294921875, 1.7352294921875, 1.7620849609375, 1.7620849609375, 1.76055908203125, 1.76055908203125, 1.72821044921875, 1.72821044921875, 1.72821044921875, 1.72821044921875, 1.72119140625, 1.72119140625, 1.7242431640625, 1.7242431640625, 1.7242431640625, 1.7242431640625, 1.76116943359375, 1.76116943359375, 1.778564453125, 1.778564453125, 1.800537109375, 1.800537109375, 1.800537109375, 1.800537109375]",0.4067997598160582,1.0668117690131496,accepted,2.5614038000348955,1.8134826000314206
pgACC-TUS-staircase,,1,2024-02-13_11h43.05.255,None,02,,,-0.0665283203125,2.4460274832589284,2.5502522786458335,2.0050048828125,2.277628580729167,2.344156901041667,4,25,22,25,87,8,8,8.888789638231353,"[-0.0067138671875, -0.0067138671875, -0.0067138671875, -0.00640869140625, -0.0067138671875, -0.0067138671875, -0.00701904296875, -0.006103515625, -0.006103515625, -0.00640869140625, -0.00518798828125, -0.00579833984375, -0.00579833984375, -0.00579833984375, -0.00579833984375, -0.00640869140625, -0.00640869140625, -0.0067138671875, -0.0067138671875, -0.0067138671875, -0.0067138671875, -0.0048828125, 0.003662109375, 0.0177001953125, 0.0177001953125, 0.05584716796875, 0.10772705078125, 0.186767578125, 0.186767578125, 0.2685546875, 0.340576171875, 0.45135498046875, 0.5535888671875, 0.5535888671875, 0.7098388671875, 0.86212158203125, 1.0296630859375, 1.0296630859375, 1.1553955078125, 1.2445068359375, 1.36627197265625, 1.36627197265625, 1.47186279296875, 1.58721923828125, 1.67266845703125, 1.67266845703125, 1.7706298828125, 1.82830810546875, 1.82830810546875, 1.9500732421875, 1.9500732421875, 1.9500732421875, 1.9500732421875, 1.96929931640625, 1.96929931640625, 1.9976806640625, 1.9976806640625, 2.04559326171875, 2.04559326171875, 2.04559326171875, 2.04559326171875, 2.06146240234375, 2.06146240234375, 2.06512451171875, 2.06512451171875, 2.1087646484375, 2.1087646484375, 2.1087646484375, 2.1087646484375, 2.17315673828125, 2.17315673828125, 2.13531494140625, 2.13531494140625, 2.13531494140625, 2.13531494140625, 2.10052490234375, 2.10052490234375, 2.078857421875, 2.078857421875, 2.09716796875, 2.09716796875, 2.11090087890625, 2.11090087890625, 2.11090087890625, 2.11090087890625, 2.0855712890625, 2.0855712890625, 2.0782470703125, 2.0782470703125, 2.1099853515625, 2.1099853515625, 2.1099853515625, 2.1099853515625, 2.11090087890625, 2.11090087890625, 2.07183837890625, 2.07183837890625, 2.07183837890625, 2.07183837890625, 2.08465576171875, 2.08465576171875, 2.08465576171875, 2.08465576171875, 2.0806884765625, 2.0806884765625, 2.0709228515625, 2.0709228515625, 2.0556640625, 2.0556640625, 2.0562744140625, 2.0562744140625, 2.0562744140625, 2.0562744140625, 2.05047607421875, 2.05047607421875, 2.02972412109375, 2.02972412109375, 2.01202392578125, 2.01202392578125, 2.01202392578125, 2.01202392578125, 2.0294189453125, 2.0294189453125, 2.0428466796875, 2.0428466796875, 2.0355224609375, 2.0355224609375, 2.034912109375, 2.034912109375, 2.034912109375, 2.034912109375, 2.05230712890625, 2.05230712890625, 2.05718994140625, 2.05718994140625, 2.0318603515625, 2.0318603515625, 2.01080322265625, 2.01080322265625, 2.01080322265625, 2.01080322265625, 2.03704833984375, 2.03704833984375, 2.0477294921875, 2.0477294921875, 2.0477294921875, 2.0477294921875, 2.02789306640625, 2.02789306640625, 2.01751708984375, 2.01751708984375, 2.02056884765625, 2.02056884765625, 2.01416015625, 2.01416015625, 2.01416015625, 2.01416015625, 2.00775146484375, 2.00775146484375, 2.00897216796875, 2.00897216796875, 2.01416015625, 2.01416015625, 2.01416015625, 2.01416015625, 2.0257568359375, 2.0257568359375, 2.02606201171875, 2.02606201171875, 2.0245361328125, 2.0245361328125]",0.3297150084605956,-1.035184628227725,accepted,2.614263999974355,1.7877951001282781
pgACC-TUS-staircase,,1,2024-02-13_11h43.05.255,None,02,,,-0.0665283203125,2.4460274832589284,2.5502522786458335,2.0050048828125,2.277628580729167,2.344156901041667,5,22,11,0,87,8,5,0,"[]",0.4018497605050438,0.898239458521882,rejected,1.7189048000145704,0
pgACC-TUS-staircase,,1,2024-02-13_11h43.05.255,None,02,,,-0.0665283203125,2.4460274832589284,2.5502522786458335,2.0050048828125,2.277628580729167,2.344156901041667,6,11,20,11,98,5,7,5.966502903081732,"[0.0933837890625, 0.09185791015625, 0.09124755859375, 0.09124755859375, 0.08819580078125, 0.084228515625, 0.074462890625, 0.074462890625, 0.0628662109375, 0.0531005859375, 0.0531005859375, 0.04913330078125, 0.04486083984375, 0.04058837890625, 0.04058837890625, 0.03692626953125, 0.03326416015625, 0.0323486328125, 0.0323486328125, 0.0335693359375, 0.059814453125, 0.08758544921875, 0.128173828125, 0.128173828125, 0.20233154296875, 0.27099609375, 0.390625, 0.390625, 0.51361083984375, 0.67230224609375, 0.8203125, 0.8203125, 0.963134765625, 1.12762451171875, 1.2005615234375, 1.2005615234375, 1.28143310546875, 1.28143310546875, 1.28143310546875, 1.28143310546875, 1.32476806640625, 1.32476806640625, 1.37298583984375, 1.37298583984375, 1.4385986328125, 1.4385986328125, 1.4385986328125, 1.4385986328125, 1.4813232421875, 1.4813232421875, 1.502685546875, 1.502685546875, 1.502685546875, 1.502685546875, 1.50146484375, 1.50146484375, 1.50054931640625, 1.50054931640625, 1.50970458984375, 1.50970458984375, 1.50970458984375, 1.50970458984375, 1.51214599609375, 1.51214599609375, 1.50970458984375, 1.50970458984375, 1.507568359375, 1.507568359375, 1.5283203125, 1.5283203125, 1.5283203125, 1.5283203125, 1.5362548828125, 1.5362548828125, 1.51580810546875, 1.51580810546875, 1.51092529296875, 1.51092529296875, 1.51092529296875, 1.51092529296875, 1.51092529296875, 1.51092529296875, 1.507568359375, 1.507568359375, 1.50787353515625, 1.50787353515625, 1.5057373046875, 1.5057373046875, 1.5057373046875, 1.5057373046875, 1.495361328125, 1.495361328125, 1.4862060546875, 1.4862060546875, 1.47125244140625, 1.47125244140625, 1.47125244140625, 1.47125244140625, 1.4569091796875, 1.4569091796875, 1.45233154296875, 1.45233154296875, 1.456298828125, 1.456298828125, 1.4556884765625, 1.4556884765625, 1.4556884765625, 1.4556884765625, 1.4581298828125, 1.4581298828125, 1.45782470703125, 1.45782470703125, 1.45782470703125, 1.45782470703125, 1.45782470703125, 1.45782470703125, 1.4520263671875, 1.4520263671875, 1.43829345703125, 1.43829345703125, 1.42669677734375, 1.42669677734375, 1.42669677734375, 1.42669677734375, 1.4215087890625, 1.4215087890625, 1.4227294921875, 1.4227294921875, 1.42791748046875, 1.42791748046875, 1.42791748046875, 1.42791748046875, 1.4398193359375, 1.4398193359375, 1.4501953125, 1.4501953125, 1.4520263671875, 1.4520263671875, 1.45965576171875, 1.45965576171875, 1.45660400390625, 1.45660400390625, 1.45660400390625, 1.45660400390625, 1.43341064453125, 1.43341064453125, 1.40167236328125, 1.40167236328125, 1.38275146484375, 1.38275146484375, 1.38275146484375, 1.38275146484375, 1.3726806640625, 1.3726806640625, 1.36016845703125, 1.36016845703125, 1.35894775390625, 1.35894775390625]",0.4018497605050438,0.9537559873739045,accepted,1.8167693000286818,1.5662767000030726
pgACC-TUS-staircase,,1,2024-02-13_11h43.05.255,None,02,,,-0.0665283203125,2.4460274832589284,2.5502522786458335,2.0050048828125,2.277628580729167,2.344156901041667,7,20,26,20,118,7,8,8.08083966056275,"[0.006103515625, 0.0115966796875, 0.0115966796875, 0.0164794921875, 0.018310546875, 0.02166748046875, 0.02166748046875, 0.03265380859375, 0.0518798828125, 0.0518798828125, 0.0640869140625, 0.069580078125, 0.07080078125, 0.07720947265625, 0.07720947265625, 0.09307861328125, 0.1165771484375, 0.15869140625, 0.15869140625, 0.22064208984375, 0.27252197265625, 0.35308837890625, 0.50201416015625, 0.50201416015625, 0.60028076171875, 0.711669921875, 0.83587646484375, 0.83587646484375, 0.9588623046875, 1.092529296875, 1.1627197265625, 1.2506103515625, 1.2506103515625, 1.318359375, 1.38397216796875, 1.46209716796875, 1.46209716796875, 1.54205322265625, 1.60552978515625, 1.60552978515625, 1.65374755859375, 1.65374755859375, 1.6766357421875, 1.6766357421875, 1.6766357421875, 1.6766357421875, 1.719970703125, 1.719970703125, 1.81365966796875, 1.81365966796875, 1.85943603515625, 1.85943603515625, 1.86981201171875, 1.86981201171875, 1.86981201171875, 1.86981201171875, 1.89849853515625, 1.89849853515625, 1.9720458984375, 1.9720458984375, 2.0269775390625, 2.0269775390625, 2.0269775390625, 2.0269775390625, 2.03460693359375, 2.03460693359375, 2.042236328125, 2.042236328125, 2.0416259765625, 2.0416259765625, 2.03765869140625, 2.03765869140625, 2.03765869140625, 2.03765869140625, 2.0245361328125, 2.0245361328125, 2.000732421875, 2.000732421875, 1.98394775390625, 1.98394775390625, 1.98394775390625, 1.98394775390625, 1.98211669921875, 1.98211669921875, 1.966552734375, 1.966552734375, 1.93695068359375, 1.93695068359375, 1.92962646484375, 1.92962646484375, 1.92962646484375, 1.92962646484375, 1.91864013671875, 1.91864013671875, 1.91864013671875, 1.91864013671875, 1.90887451171875, 1.90887451171875, 1.881103515625, 1.881103515625, 1.87042236328125, 1.87042236328125, 1.87042236328125, 1.87042236328125, 1.8963623046875, 1.8963623046875, 1.9073486328125, 1.9073486328125, 1.8731689453125, 1.8731689453125, 1.8621826171875, 1.8621826171875, 1.8621826171875, 1.8621826171875, 1.8609619140625, 1.8609619140625, 1.84844970703125, 1.84844970703125, 1.8304443359375, 1.8304443359375, 1.856689453125, 1.856689453125, 1.856689453125, 1.856689453125, 1.884765625, 1.884765625, 1.8939208984375, 1.8939208984375, 1.8719482421875, 1.8719482421875, 1.8719482421875, 1.8719482421875, 1.88995361328125, 1.88995361328125, 1.925048828125, 1.925048828125, 1.9012451171875, 1.9012451171875, 1.87408447265625, 1.87408447265625, 1.87408447265625, 1.87408447265625, 1.8853759765625, 1.8853759765625, 1.89178466796875, 1.89178466796875, 1.8768310546875, 1.8768310546875, 1.87042236328125, 1.87042236328125, 1.87042236328125, 1.87042236328125, 1.86553955078125, 1.86553955078125, 1.854248046875, 1.854248046875, 1.84356689453125, 1.84356689453125, 1.84356689453125, 1.84356689453125, 1.84051513671875, 1.84051513671875]",0.4018497605050438,0.30936173525285326,accepted,1.595907400129363,1.6429779999889433
pgACC-TUS-staircase,,1,2024-02-13_11h43.05.255,None,02,,,-0.0665283203125,2.4460274832589284,2.5502522786458335,2.0050048828125,2.277628580729167,2.344156901041667,8,26,9,0,118,8,5,0,"[]",0.4644046192186807,0.28161532767719777,rejected,2.55889380001463,0
pgACC-TUS-staircase,,1,2024-02-13_11h43.05.255,None,02,,,-0.0665283203125,2.4460274832589284,2.5502522786458335,2.0050048828125,2.277628580729167,2.344156901041667,9,9,11,0,118,5,5,0,"[]",0.4644046192186807,-2.6101154804670177,rejected,1.636341700097546,0
pgACC-TUS-staircase,,1,2024-02-13_11h43.05.255,None,02,,,-0.0665283203125,2.4460274832589284,2.5502522786458335,2.0050048828125,2.277628580729167,2.344156901041667,10,11,16,11,129,5,6,6.0026797677534605,"[-0.0042724609375, -0.00335693359375, -0.00244140625, -0.00274658203125, -0.00274658203125, -0.00335693359375, -0.00213623046875, -0.00213623046875, -0.00244140625, -0.00244140625, -0.00213623046875, -0.00213623046875, -0.00274658203125, -0.00213623046875, 0.00030517578125, 0.00030517578125, 0.00335693359375, 0.008544921875, 0.01983642578125, 0.04852294921875, 0.04852294921875, 0.0921630859375, 0.19805908203125, 0.2734375, 0.2734375, 0.3582763671875, 0.46783447265625, 0.56640625, 0.65032958984375, 0.65032958984375, 0.73974609375, 0.85723876953125, 0.919189453125, 0.919189453125, 0.99212646484375, 1.0791015625, 1.12396240234375, 1.12396240234375, 1.1553955078125, 1.1553955078125, 1.20269775390625, 1.20269775390625, 1.24359130859375, 1.24359130859375, 1.25640869140625, 1.25640869140625, 1.25640869140625, 1.25640869140625, 1.27227783203125, 1.27227783203125, 1.30279541015625, 1.30279541015625, 1.32659912109375, 1.32659912109375, 1.32659912109375, 1.32659912109375, 1.31500244140625, 1.31500244140625, 1.31378173828125, 1.31378173828125, 1.32781982421875, 1.32781982421875, 1.318359375, 1.318359375, 1.318359375, 1.318359375, 1.31072998046875, 1.31072998046875, 1.31500244140625, 1.31500244140625, 1.32354736328125, 1.32354736328125, 1.324462890625, 1.324462890625, 1.324462890625, 1.324462890625, 1.32110595703125, 1.32110595703125, 1.32659912109375, 1.32659912109375, 1.334228515625, 1.334228515625, 1.334228515625, 1.334228515625, 1.33148193359375, 1.33148193359375, 1.31195068359375, 1.31195068359375, 1.31134033203125, 1.31134033203125, 1.31134033203125, 1.31134033203125, 1.3037109375, 1.3037109375, 1.2933349609375, 1.2933349609375, 1.28936767578125, 1.28936767578125, 1.28997802734375, 1.28997802734375, 1.28997802734375, 1.28997802734375, 1.28997802734375, 1.28997802734375, 1.28143310546875, 1.28143310546875, 1.270751953125, 1.270751953125, 1.2567138671875, 1.2567138671875, 1.2567138671875, 1.2567138671875, 1.2567138671875, 1.2567138671875, 1.253662109375, 1.253662109375, 1.248779296875, 1.248779296875, 1.248779296875, 1.248779296875, 1.24420166015625, 1.24420166015625, 1.24359130859375, 1.24359130859375, 1.25030517578125, 1.25030517578125, 1.25030517578125, 1.25030517578125, 1.25213623046875, 1.25213623046875, 1.24603271484375, 1.24603271484375, 1.24603271484375, 1.24603271484375, 1.260986328125, 1.260986328125, 1.260986328125, 1.260986328125, 1.28875732421875, 1.28875732421875, 1.30950927734375, 1.30950927734375, 1.329345703125, 1.329345703125, 1.329345703125, 1.329345703125, 1.3604736328125, 1.3604736328125, 1.3739013671875, 1.3739013671875, 1.3775634765625, 1.3775634765625, 1.38214111328125, 1.38214111328125, 1.38214111328125, 1.38214111328125, 1.378173828125, 1.378173828125, 1.3671875, 1.3671875]",0.4059239324309887,-0.6101154804670177,accepted,1.1495406001340598,1.6249347999691963
pgACC-TUS-staircase,,1,2024-02-13_11h43.05.255,None,02,,,-0.0665283203125,2.4460274832589284,2.5502522786458335,2.0050048828125,2.277628580729167,2.344156901041667,11,16,18,16,145,6,6,6.5560518088432325,"[0.08026123046875, 0.07293701171875, 0.068359375, 0.068359375, 0.06439208984375, 0.06256103515625, 0.0604248046875, 0.0604248046875, 0.05828857421875, 0.05645751953125, 0.0537109375, 0.0537109375, 0.05096435546875, 0.05035400390625, 0.05035400390625, 0.0506591796875, 0.050048828125, 0.05096435546875, 0.05401611328125, 0.05401611328125, 0.05767822265625, 0.06744384765625, 0.07965087890625, 0.07965087890625, 0.0933837890625, 0.11932373046875, 0.181884765625, 0.25634765625, 0.3216552734375, 0.3216552734375, 0.45867919921875, 0.54595947265625, 0.6365966796875, 0.6365966796875, 0.72540283203125, 0.8905029296875, 0.96588134765625, 1.0809326171875, 1.0809326171875, 1.13739013671875, 1.21337890625, 1.25457763671875, 1.2860107421875, 1.2860107421875, 1.3385009765625, 1.402587890625, 1.402587890625, 1.45904541015625, 1.45904541015625, 1.5057373046875, 1.5057373046875, 1.5057373046875, 1.5057373046875, 1.56951904296875, 1.56951904296875, 1.59210205078125, 1.59210205078125, 1.600341796875, 1.600341796875, 1.59027099609375, 1.59027099609375, 1.59027099609375, 1.59027099609375, 1.546630859375, 1.546630859375, 1.5203857421875, 1.5203857421875, 1.51031494140625, 1.51031494140625, 1.51031494140625, 1.51031494140625, 1.53533935546875, 1.53533935546875, 1.578369140625, 1.578369140625, 1.59912109375, 1.59912109375, 1.59912109375, 1.59912109375, 1.6229248046875, 1.6229248046875, 1.6229248046875, 1.6229248046875, 1.612548828125, 1.612548828125, 1.602783203125, 1.602783203125, 1.602783203125, 1.602783203125, 1.5960693359375, 1.5960693359375, 1.59881591796875, 1.59881591796875, 1.60125732421875, 1.60125732421875, 1.60125732421875, 1.60125732421875, 1.61590576171875, 1.61590576171875, 1.63421630859375, 1.63421630859375, 1.63482666015625, 1.63482666015625, 1.6265869140625, 1.6265869140625, 1.6265869140625, 1.6265869140625, 1.60980224609375, 1.60980224609375, 1.59759521484375, 1.59759521484375, 1.58355712890625, 1.58355712890625, 1.58355712890625, 1.58355712890625, 1.57623291015625, 1.57623291015625, 1.57196044921875, 1.57196044921875, 1.57928466796875, 1.57928466796875, 1.57928466796875, 1.57928466796875, 1.56585693359375, 1.56585693359375, 1.53106689453125, 1.53106689453125, 1.51123046875, 1.51123046875, 1.5069580078125, 1.5069580078125, 1.5069580078125, 1.5069580078125, 1.484375, 1.484375, 1.44378662109375, 1.44378662109375, 1.4202880859375, 1.4202880859375, 1.4202880859375, 1.4202880859375, 1.41998291015625, 1.41998291015625, 1.40655517578125, 1.40655517578125, 1.38885498046875, 1.38885498046875, 1.38885498046875, 1.38885498046875, 1.3897705078125, 1.3897705078125, 1.3897705078125, 1.3897705078125, 1.387939453125, 1.387939453125, 1.40869140625, 1.40869140625, 1.40869140625, 1.40869140625, 1.44256591796875, 1.44256591796875, 1.46942138671875, 1.46942138671875, 1.49322509765625, 1.49322509765625, 1.49322509765625, 1.49322509765625]",0.4059239324309887,1.3867384324844068,accepted,1.3914040001109242,1.7354464000090957
pgACC-TUS-staircase,,1,2024-02-13_11h43.05.255,None,02,,,-0.0665283203125,2.4460274832589284,2.5502522786458335,2.0050048828125,2.277628580729167,2.344156901041667,12,18,21,18,163,6,7,6.5560518088432325,"[0.008544921875, 0.00823974609375, 0.00946044921875, 0.00946044921875, 0.008544921875, 0.008544921875, 0.008544921875, 0.00885009765625, 0.00823974609375, 0.00823974609375, 0.00823974609375, 0.00701904296875, 0.00701904296875, 0.00579833984375, 0.0067138671875, 0.006103515625, 0.006103515625, 0.00518798828125, 0.00640869140625, 0.00762939453125, 0.0225830078125, 0.0225830078125, 0.07293701171875, 0.12420654296875, 0.2166748046875, 0.2166748046875, 0.26397705078125, 0.308837890625, 0.308837890625, 0.39154052734375, 0.47332763671875, 0.54229736328125, 0.60546875, 0.60546875, 0.71014404296875, 0.77056884765625, 0.89447021484375, 0.89447021484375, 0.95733642578125, 1.0711669921875, 1.1181640625, 1.16729736328125, 1.21795654296875, 1.21795654296875, 1.25091552734375, 1.2835693359375, 1.3372802734375, 1.3372802734375, 1.42364501953125, 1.42364501953125, 1.4373779296875, 1.4373779296875, 1.451416015625, 1.451416015625, 1.48712158203125, 1.48712158203125, 1.48712158203125, 1.48712158203125, 1.5350341796875, 1.5350341796875, 1.55303955078125, 1.55303955078125, 1.54876708984375, 1.54876708984375, 1.54205322265625, 1.54205322265625, 1.54205322265625, 1.54205322265625, 1.5557861328125, 1.5557861328125, 1.57928466796875, 1.57928466796875, 1.5826416015625, 1.5826416015625, 1.58843994140625, 1.58843994140625, 1.58843994140625, 1.58843994140625, 1.58905029296875, 1.58905029296875, 1.5875244140625, 1.5875244140625, 1.5777587890625, 1.5777587890625, 1.5777587890625, 1.5777587890625, 1.57867431640625, 1.57867431640625, 1.59088134765625, 1.59088134765625, 1.59637451171875, 1.59637451171875, 1.58966064453125, 1.58966064453125, 1.58966064453125, 1.58966064453125, 1.58935546875, 1.58935546875, 1.59881591796875, 1.59881591796875, 1.58843994140625, 1.58843994140625, 1.55792236328125, 1.55792236328125, 1.55792236328125, 1.55792236328125, 1.5386962890625, 1.5386962890625, 1.51763916015625, 1.51763916015625, 1.50726318359375, 1.50726318359375, 1.50726318359375, 1.50726318359375, 1.500244140625, 1.500244140625, 1.49261474609375, 1.49261474609375, 1.4862060546875, 1.4862060546875, 1.475830078125, 1.475830078125, 1.475830078125, 1.475830078125, 1.45751953125, 1.45751953125, 1.4349365234375, 1.4349365234375, 1.4312744140625, 1.4312744140625, 1.43341064453125, 1.43341064453125, 1.43341064453125, 1.43341064453125, 1.44775390625, 1.44775390625, 1.45538330078125, 1.45538330078125, 1.46392822265625, 1.46392822265625, 1.474609375, 1.474609375, 1.47918701171875, 1.47918701171875, 1.47918701171875, 1.47918701171875, 1.48193359375, 1.48193359375, 1.47491455078125, 1.47491455078125, 1.48712158203125, 1.48712158203125, 1.48712158203125, 1.48712158203125, 1.51824951171875, 1.51824951171875, 1.5570068359375, 1.5570068359375, 1.56341552734375, 1.56341552734375, 1.5582275390625, 1.5582275390625, 1.5582275390625, 1.5582275390625, 1.55426025390625, 1.55426025390625, 1.53839111328125, 1.53839111328125, 1.50634765625, 1.50634765625, 1.49322509765625, 1.49322509765625]",0.4059239324309887,3.3867384324844068,accepted,1.0904149999842048,1.7989300999324769
pgACC-TUS-staircase,,1,2024-02-13_11h43.05.255,None,02,,,-0.0665283203125,2.4460274832589284,2.5502522786458335,2.0050048828125,2.277628580729167,2.344156901041667,13,21,17,21,184,7,6,7.930772666368914,"[0.00091552734375, 0.00152587890625, 0.00152587890625, 0.0018310546875, 0.00091552734375, 0.00091552734375, 0.00213623046875, 0.00213623046875, 0.00213623046875, 0.00213623046875, 0.00152587890625, 0.00213623046875, 0.00213623046875, 0.00213623046875, 0.001220703125, 0.0018310546875, 0.00274658203125, 0.00274658203125, 0.01983642578125, 0.05279541015625, 0.08636474609375, 0.08636474609375, 0.13885498046875, 0.22125244140625, 0.27862548828125, 0.27862548828125, 0.38482666015625, 0.469970703125, 0.5780029296875, 0.68450927734375, 0.68450927734375, 0.78155517578125, 0.91339111328125, 1.0028076171875, 1.0028076171875, 1.1102294921875, 1.1981201171875, 1.25335693359375, 1.25335693359375, 1.30126953125, 1.3934326171875, 1.44805908203125, 1.44805908203125, 1.4764404296875, 1.5179443359375, 1.558837890625, 1.58660888671875, 1.58660888671875, 1.5997314453125, 1.5997314453125, 1.62994384765625, 1.62994384765625, 1.6815185546875, 1.6815185546875, 1.6815185546875, 1.6815185546875, 1.72882080078125, 1.72882080078125, 1.8206787109375, 1.8206787109375, 1.82525634765625, 1.82525634765625, 1.817626953125, 1.817626953125, 1.817626953125, 1.817626953125, 1.842041015625, 1.842041015625, 1.86187744140625, 1.86187744140625, 1.85302734375, 1.85302734375, 1.85302734375, 1.85302734375, 1.8438720703125, 1.8438720703125, 1.86065673828125, 1.86065673828125, 1.86065673828125, 1.86065673828125, 1.87042236328125, 1.87042236328125, 1.8731689453125, 1.8731689453125, 1.85882568359375, 1.85882568359375, 1.864013671875, 1.864013671875, 1.859130859375, 1.859130859375, 1.859130859375, 1.859130859375, 1.84539794921875, 1.84539794921875, 1.81854248046875, 1.81854248046875, 1.79595947265625, 1.79595947265625, 1.7919921875, 1.7919921875, 1.7919921875, 1.7919921875, 1.77093505859375, 1.77093505859375, 1.74102783203125, 1.74102783203125, 1.7083740234375, 1.7083740234375, 1.7083740234375, 1.7083740234375, 1.69891357421875, 1.69891357421875, 1.67449951171875, 1.67449951171875, 1.65496826171875, 1.65496826171875, 1.6571044921875, 1.6571044921875, 1.6571044921875, 1.6571044921875, 1.65557861328125, 1.65557861328125, 1.6552734375, 1.6552734375, 1.64581298828125, 1.64581298828125, 1.64581298828125, 1.64581298828125, 1.63909912109375, 1.63909912109375, 1.6302490234375, 1.6302490234375, 1.6265869140625, 1.6265869140625, 1.6259765625, 1.6259765625, 1.6259765625, 1.6259765625, 1.6424560546875, 1.6424560546875, 1.65191650390625, 1.65191650390625, 1.6583251953125, 1.6583251953125, 1.6583251953125, 1.6583251953125, 1.67816162109375, 1.67816162109375, 1.71356201171875, 1.71356201171875, 1.7376708984375, 1.7376708984375, 1.781005859375, 1.781005859375, 1.781005859375, 1.781005859375, 1.80755615234375, 1.80755615234375, 1.79412841796875, 1.79412841796875, 1.79443359375, 1.79443359375, 1.8145751953125, 1.8145751953125, 1.8145751953125, 1.8145751953125, 1.827392578125, 1.827392578125, 1.80633544921875, 1.80633544921875]",0.4059239324309887,1.1097273108815564,accepted,1.0537605001591146,1.7853818000294268
pgACC-TUS-staircase,,1,2024-02-13_11h43.05.255,None,02,,,-0.0665283203125,2.4460274832589284,2.5502522786458335,2.0050048828125,2.277628580729167,2.344156901041667,14,17,22,17,201,6,7,6.424743188923626,"[0.0262451171875, 0.0262451171875, 0.02685546875, 0.02593994140625, 0.02593994140625, 0.0250244140625, 0.02349853515625, 0.02349853515625, 0.0225830078125, 0.0225830078125, 0.02197265625, 0.02197265625, 0.02197265625, 0.02227783203125, 0.02227783203125, 0.023193359375, 0.0482177734375, 0.093994140625, 0.093994140625, 0.1544189453125, 0.25543212890625, 0.318603515625, 0.318603515625, 0.4241943359375, 0.54718017578125, 0.6500244140625, 0.751953125, 0.751953125, 0.9375, 1.09832763671875, 1.15692138671875, 1.22772216796875, 1.22772216796875, 1.30889892578125, 1.37969970703125, 1.37969970703125, 1.42120361328125, 1.42120361328125, 1.42120361328125, 1.42120361328125, 1.46087646484375, 1.46087646484375, 1.4898681640625, 1.4898681640625, 1.50665283203125, 1.50665283203125, 1.50665283203125, 1.50665283203125, 1.54052734375, 1.54052734375, 1.5411376953125, 1.5411376953125, 1.52801513671875, 1.52801513671875, 1.52801513671875, 1.52801513671875, 1.527099609375, 1.527099609375, 1.529541015625, 1.529541015625, 1.52923583984375, 1.52923583984375, 1.52587890625, 1.52587890625, 1.52587890625, 1.52587890625, 1.5350341796875, 1.5350341796875, 1.55731201171875, 1.55731201171875, 1.56036376953125, 1.56036376953125, 1.56036376953125, 1.56036376953125, 1.54754638671875, 1.54754638671875, 1.5435791015625, 1.5435791015625, 1.5509033203125, 1.5509033203125, 1.5496826171875, 1.5496826171875, 1.53717041015625, 1.53717041015625, 1.53717041015625, 1.53717041015625, 1.52008056640625, 1.52008056640625, 1.5118408203125, 1.5118408203125, 1.5118408203125, 1.5118408203125, 1.50634765625, 1.50634765625, 1.49078369140625, 1.49078369140625, 1.475830078125, 1.475830078125, 1.475830078125, 1.475830078125, 1.4666748046875, 1.4666748046875, 1.46209716796875, 1.46209716796875, 1.45416259765625, 1.45416259765625, 1.4508056640625, 1.4508056640625, 1.4508056640625, 1.4508056640625, 1.4593505859375, 1.4593505859375, 1.4697265625, 1.4697265625, 1.45294189453125, 1.45294189453125, 1.45294189453125, 1.45294189453125, 1.45477294921875, 1.45477294921875, 1.484375, 1.484375, 1.505126953125, 1.505126953125, 1.49749755859375, 1.49749755859375, 1.49749755859375, 1.49749755859375, 1.49322509765625, 1.49322509765625, 1.50970458984375, 1.50970458984375, 1.531982421875, 1.531982421875, 1.531982421875, 1.531982421875, 1.513671875, 1.513671875, 1.49261474609375, 1.49261474609375, 1.49383544921875, 1.49383544921875, 1.4959716796875, 1.4959716796875, 1.4959716796875, 1.4959716796875, 1.48651123046875, 1.48651123046875, 1.4752197265625, 1.4752197265625, 1.47247314453125, 1.47247314453125, 1.47247314453125, 1.47247314453125, 1.46331787109375, 1.46331787109375]",0.4059239324309887,2.3867384324844068,accepted,1.7395187998190522,1.552330199861899
pgACC-TUS-staircase,,1,2024-02-13_11h43.05.255,None,02,,,-0.0665283203125,2.4460274832589284,2.5502522786458335,2.0050048828125,2.277628580729167,2.344156901041667,15,22,7,22,223,7,4,7.619919606967395,"[-0.0067138671875, -0.006103515625, -0.00579833984375, -0.00579833984375, -0.00579833984375, -0.0054931640625, -0.0054931640625, -0.0054931640625, -0.00518798828125, -0.00579833984375, -0.0054931640625, -0.0054931640625, -0.0048828125, -0.006103515625, -0.006103515625, -0.006103515625, -0.00579833984375, -0.00579833984375, -0.00579833984375, -0.00579833984375, -0.00457763671875, 0.00274658203125, 0.02593994140625, 0.08026123046875, 0.08026123046875, 0.14373779296875, 0.21697998046875, 0.26947021484375, 0.26947021484375, 0.3619384765625, 0.49560546875, 0.59173583984375, 0.59173583984375, 0.7342529296875, 0.89111328125, 0.96221923828125, 1.068115234375, 1.068115234375, 1.14227294921875, 1.209716796875, 1.259765625, 1.3330078125, 1.3330078125, 1.37298583984375, 1.38397216796875, 1.38671875, 1.38671875, 1.4068603515625, 1.4227294921875, 1.42822265625, 1.42822265625, 1.47705078125, 1.5179443359375, 1.556396484375, 1.556396484375, 1.5667724609375, 1.5704345703125, 1.60369873046875, 1.60369873046875, 1.63543701171875, 1.63543701171875, 1.63543701171875, 1.63543701171875, 1.6571044921875, 1.6571044921875, 1.7266845703125, 1.7266845703125, 1.76361083984375, 1.76361083984375, 1.76361083984375, 1.76361083984375, 1.82037353515625, 1.82037353515625, 1.89361572265625, 1.89361572265625, 1.920166015625, 1.920166015625, 1.873779296875, 1.873779296875, 1.873779296875, 1.873779296875, 1.8597412109375, 1.8597412109375, 1.88079833984375, 1.88079833984375, 1.94000244140625, 1.94000244140625, 1.94000244140625, 1.94000244140625, 1.9561767578125, 1.9561767578125, 1.8798828125, 1.8798828125, 1.81304931640625, 1.81304931640625, 1.81304931640625, 1.81304931640625, 1.77215576171875, 1.77215576171875, 1.68121337890625, 1.68121337890625, 1.6839599609375, 1.6839599609375, 1.69921875, 1.69921875, 1.69921875, 1.69921875, 1.7059326171875, 1.7059326171875, 1.7401123046875, 1.7401123046875, 1.800537109375, 1.800537109375, 1.800537109375, 1.800537109375, 1.81365966796875, 1.81365966796875, 1.76239013671875, 1.76239013671875, 1.73675537109375, 1.73675537109375, 1.73675537109375, 1.73675537109375, 1.7913818359375, 1.7913818359375, 1.8023681640625, 1.8023681640625, 1.78192138671875, 1.78192138671875, 1.80572509765625, 1.80572509765625, 1.80572509765625, 1.80572509765625, 1.84906005859375, 1.84906005859375, 1.8475341796875, 1.8475341796875, 1.837158203125, 1.837158203125, 1.837158203125, 1.837158203125, 1.85211181640625, 1.85211181640625, 1.885986328125, 1.885986328125, 1.87896728515625, 1.87896728515625, 1.87896728515625, 1.87896728515625, 1.85760498046875, 1.85760498046875, 1.86004638671875, 1.86004638671875, 1.8695068359375, 1.8695068359375, 1.85791015625, 1.85791015625, 1.85791015625, 1.85791015625, 1.83563232421875, 1.83563232421875, 1.83502197265625, 1.83502197265625, 1.84051513671875, 1.84051513671875, 1.84051513671875, 1.84051513671875, 1.8212890625, 1.8212890625, 1.7791748046875, 1.7791748046875, 1.76788330078125, 1.76788330078125, 1.77093505859375, 1.77093505859375, 1.77093505859375, 1.77093505859375, 1.76727294921875, 1.76727294921875, 1.73553466796875, 1.73553466796875]",0.4059239324309887,2.1097273108815564,accepted,1.3934842001181096,1.9610460998956114
pgACC-TUS-staircase,,1,2024-02-13_11h43.05.255,None,02,,,-0.0665283203125,2.4460274832589284,2.5502522786458335,2.0050048828125,2.277628580729167,2.344156901041667,16,7,17,7,230,4,7,4.601161232693166,"[0.01251220703125, 0.013427734375, 0.013427734375, 0.01251220703125, 0.01190185546875, 0.01190185546875, 0.0115966796875, 0.01220703125, 0.0128173828125, 0.0128173828125, 0.0128173828125, 0.013427734375, 0.013427734375, 0.013427734375, 0.0140380859375, 0.01312255859375, 0.01373291015625, 0.01373291015625, 0.013427734375, 0.01983642578125, 0.06195068359375, 0.10772705078125, 0.10772705078125, 0.14678955078125, 0.22430419921875, 0.26824951171875, 0.369873046875, 0.369873046875, 0.48980712890625, 0.572509765625, 0.67047119140625, 0.67047119140625, 0.77484130859375, 0.86151123046875, 0.90179443359375, 0.936279296875, 0.936279296875, 0.98846435546875, 0.98846435546875, 0.98846435546875, 0.98846435546875, 1.025390625, 1.025390625, 1.02630615234375, 1.02630615234375, 1.04644775390625, 1.04644775390625, 1.04644775390625, 1.04644775390625, 1.0638427734375, 1.0638427734375, 1.068115234375, 1.068115234375, 1.0693359375, 1.0693359375, 1.0693359375, 1.0693359375, 1.10076904296875, 1.10076904296875, 1.11083984375, 1.11083984375, 1.10443115234375, 1.10443115234375, 1.10809326171875, 1.10809326171875, 1.10809326171875, 1.10809326171875, 1.1474609375, 1.1474609375, 1.1566162109375, 1.1566162109375, 1.13800048828125, 1.13800048828125, 1.13800048828125, 1.13800048828125, 1.12518310546875, 1.12518310546875, 1.12579345703125, 1.12579345703125, 1.12060546875, 1.12060546875, 1.11053466796875, 1.11053466796875, 1.11053466796875, 1.11053466796875, 1.10076904296875, 1.10076904296875, 1.09588623046875, 1.09588623046875, 1.08367919921875, 1.08367919921875, 1.07391357421875, 1.07391357421875, 1.06597900390625, 1.06597900390625, 1.06597900390625, 1.06597900390625, 1.060791015625, 1.060791015625, 1.05743408203125, 1.05743408203125, 1.04705810546875, 1.04705810546875, 1.04705810546875, 1.04705810546875, 1.038818359375, 1.038818359375, 1.04156494140625, 1.04156494140625, 1.043701171875, 1.043701171875, 1.0430908203125, 1.0430908203125, 1.0430908203125, 1.0430908203125, 1.0247802734375, 1.0247802734375, 1.0101318359375, 1.0101318359375, 1.0076904296875, 1.0076904296875, 1.0076904296875, 1.0076904296875, 1.01318359375, 1.01318359375, 1.0137939453125, 1.0137939453125, 1.01470947265625, 1.01470947265625, 1.01470947265625, 1.01470947265625, 1.01654052734375, 1.01654052734375, 1.01776123046875, 1.01776123046875, 1.02294921875, 1.02294921875, 1.0296630859375, 1.0296630859375, 1.0296630859375, 1.0296630859375, 1.0430908203125, 1.0430908203125, 1.0418701171875, 1.0418701171875, 1.03607177734375, 1.03607177734375, 1.03607177734375, 1.03607177734375, 1.03973388671875, 1.03973388671875, 1.048583984375, 1.048583984375, 1.0467529296875, 1.0467529296875, 1.0479736328125, 1.0479736328125]",0.4059239324309887,0.5052170811041812,accepted,2.3131011999212205,1.5757524000946432
pgACC-TUS-staircase,,1,2024-02-13_11h43.05.255,None,02,,,-0.0665283203125,2.4460274832589284,2.5502522786458335,2.0050048828125,2.277628580729167,2.344156901041667,17,17,5,0,230,7,4,0,"[]",0.4059239324309887,-2.8902726891184436,rejected,2.118848300073296,0
pgACC-TUS-staircase,,1,2024-02-13_11h43.05.255,None,02,,,-0.0665283203125,2.4460274832589284,2.5502522786458335,2.0050048828125,2.277628580729167,2.344156901041667,18,5,30,5,235,4,9,4.270209915140687,"[0.0146484375, 0.01556396484375, 0.01556396484375, 0.0164794921875, 0.01678466796875, 0.01678466796875, 0.0164794921875, 0.01556396484375, 0.01556396484375, 0.01495361328125, 0.0146484375, 0.01373291015625, 0.013427734375, 0.013427734375, 0.0128173828125, 0.0128173828125, 0.013427734375, 0.03082275390625, 0.03082275390625, 0.0616455078125, 0.0909423828125, 0.12908935546875, 0.2410888671875, 0.2410888671875, 0.30853271484375, 0.42724609375, 0.54412841796875, 0.64544677734375, 0.64544677734375, 0.73760986328125, 0.86761474609375, 0.92437744140625, 0.92437744140625, 0.97259521484375, 0.97259521484375, 0.97259521484375, 0.97259521484375, 1.07086181640625, 1.07086181640625, 1.1419677734375, 1.1419677734375, 1.19598388671875, 1.19598388671875, 1.19598388671875, 1.19598388671875, 1.2237548828125, 1.2237548828125, 1.2384033203125, 1.2384033203125, 1.2432861328125, 1.2432861328125, 1.2432861328125, 1.2432861328125, 1.25946044921875, 1.25946044921875, 1.2835693359375, 1.2835693359375, 1.27777099609375, 1.27777099609375, 1.2664794921875, 1.2664794921875, 1.2664794921875, 1.2664794921875, 1.2701416015625, 1.2701416015625, 1.25732421875, 1.25732421875, 1.2384033203125, 1.2384033203125, 1.2384033203125, 1.2384033203125, 1.2091064453125, 1.2091064453125, 1.18194580078125, 1.18194580078125, 1.14471435546875, 1.14471435546875, 1.1297607421875, 1.1297607421875, 1.1297607421875, 1.1297607421875, 1.1187744140625, 1.1187744140625, 1.10931396484375, 1.10931396484375, 1.09954833984375, 1.09954833984375, 1.09710693359375, 1.09710693359375, 1.09710693359375, 1.09710693359375, 1.10076904296875, 1.10076904296875, 1.10137939453125, 1.10137939453125, 1.10137939453125, 1.10137939453125, 1.0986328125, 1.0986328125, 1.09710693359375, 1.09710693359375, 1.0986328125, 1.0986328125, 1.0980224609375, 1.0980224609375, 1.0980224609375, 1.0980224609375, 1.0955810546875, 1.0955810546875, 1.090087890625, 1.090087890625, 1.09405517578125, 1.09405517578125, 1.09405517578125, 1.09405517578125, 1.0992431640625, 1.0992431640625, 1.0992431640625, 1.0992431640625, 1.09405517578125, 1.09405517578125, 1.08917236328125, 1.08917236328125, 1.08917236328125, 1.08917236328125, 1.08978271484375, 1.08978271484375, 1.0736083984375, 1.0736083984375, 1.0546875, 1.0546875, 1.0546875, 1.0546875, 1.05438232421875, 1.05438232421875, 1.05804443359375, 1.05804443359375, 1.058349609375, 1.058349609375, 1.04766845703125, 1.04766845703125, 1.04766845703125, 1.04766845703125, 1.0260009765625, 1.0260009765625, 1.00311279296875, 1.00311279296875, 0.98663330078125, 0.98663330078125, 0.97259521484375, 0.97259521484375, 0.97259521484375, 0.97259521484375]",0.35665512161803103,-1.4947829188958188,accepted,1.4840305999387056,1.5035782000049949
pgACC-TUS-staircase,,1,2024-02-13_11h43.05.255,None,02,,,-0.0665283203125,2.4460274832589284,2.5502522786458335,2.0050048828125,2.277628580729167,2.344156901041667,19,30,27,30,265,9,9,9.424743188923625,"[-0.00274658203125, -0.00274658203125, -0.00335693359375, -0.0018310546875, -0.00152587890625, -0.00152587890625, 0.0018310546875, 0.00457763671875, 0.00457763671875, 0.00701904296875, 0.00762939453125, 0.00823974609375, 0.00823974609375, 0.00946044921875, 0.0115966796875, 0.020751953125, 0.020751953125, 0.0433349609375, 0.079345703125, 0.1416015625, 0.247802734375, 0.247802734375, 0.3399658203125, 0.5419921875, 0.697021484375, 0.697021484375, 0.86273193359375, 1.0528564453125, 1.18011474609375, 1.18011474609375, 1.3250732421875, 1.5167236328125, 1.63055419921875, 1.63055419921875, 1.74163818359375, 1.8475341796875, 1.932373046875, 2.03216552734375, 2.03216552734375, 2.10174560546875, 2.10174560546875, 2.19696044921875, 2.19696044921875, 2.24853515625, 2.24853515625, 2.24853515625, 2.24853515625, 2.26593017578125, 2.26593017578125, 2.30743408203125, 2.30743408203125, 2.353515625, 2.353515625, 2.353515625, 2.353515625, 2.406005859375, 2.406005859375, 2.449951171875, 2.449951171875, 2.45330810546875, 2.45330810546875, 2.432861328125, 2.432861328125, 2.432861328125, 2.432861328125, 2.3626708984375, 2.3626708984375, 2.318115234375, 2.318115234375, 2.2918701171875, 2.2918701171875, 2.2528076171875, 2.2528076171875, 2.2528076171875, 2.2528076171875, 2.20977783203125, 2.20977783203125, 2.21923828125, 2.21923828125, 2.2344970703125, 2.2344970703125, 2.20794677734375, 2.20794677734375, 2.20794677734375, 2.20794677734375, 2.1697998046875, 2.1697998046875, 2.19757080078125, 2.19757080078125, 2.19635009765625, 2.19635009765625, 2.19635009765625, 2.19635009765625, 2.11578369140625, 2.11578369140625, 2.08221435546875, 2.08221435546875, 2.127685546875, 2.127685546875, 2.127685546875, 2.127685546875, 2.1588134765625, 2.1588134765625, 2.13958740234375, 2.13958740234375, 2.14935302734375, 2.14935302734375, 2.19635009765625, 2.19635009765625, 2.19635009765625, 2.19635009765625, 2.19879150390625, 2.19879150390625, 2.18292236328125, 2.18292236328125, 2.19757080078125, 2.19757080078125, 2.19757080078125, 2.19757080078125, 2.21588134765625, 2.21588134765625, 2.1502685546875, 2.1502685546875, 2.1075439453125, 2.1075439453125, 2.1453857421875, 2.1453857421875, 2.1453857421875, 2.1453857421875, 2.19512939453125, 2.19512939453125, 2.15179443359375, 2.15179443359375, 2.119140625, 2.119140625, 2.119140625, 2.119140625, 2.1160888671875, 2.1160888671875, 2.12493896484375, 2.12493896484375, 2.0989990234375, 2.0989990234375, 2.10479736328125, 2.10479736328125, 2.10479736328125, 2.10479736328125, 2.1453857421875, 2.1453857421875, 2.15301513671875, 2.15301513671875, 2.12066650390625, 2.12066650390625, 2.12066650390625, 2.12066650390625, 2.1221923828125, 2.1221923828125, 2.1435546875, 2.1435546875, 2.1466064453125, 2.1466064453125]",0.35665512161803103,1.110935148939486,accepted,1.6975966999307275,1.6388556000310928
pgACC-TUS-staircase,,1,2024-02-13_11h43.05.255,None,02,,,-0.0665283203125,2.4460274832589284,2.5502522786458335,2.0050048828125,2.277628580729167,2.344156901041667,20,27,11,27,292,9,6,9.124609200535952,"[0.00030517578125, 0.00091552734375, 0.00030517578125, 0.0006103515625, 0.0006103515625, 0.0006103515625, 0.00030517578125, 0.00030517578125, 0.00030517578125, 0.00091552734375, 0.00091552734375, 0.001220703125, 0.001220703125, 0.00091552734375, 0.00091552734375, 0.0006103515625, 0.001220703125, 0.0006103515625, 0.00244140625, 0.00244140625, 0.023193359375, 0.076904296875, 0.12786865234375, 0.20263671875, 0.20263671875, 0.27313232421875, 0.35888671875, 0.48553466796875, 0.5999755859375, 0.5999755859375, 0.71533203125, 0.85662841796875, 0.99884033203125, 0.99884033203125, 1.1279296875, 1.22650146484375, 1.32080078125, 1.48956298828125, 1.48956298828125, 1.58172607421875, 1.63665771484375, 1.74102783203125, 1.74102783203125, 1.7938232421875, 1.86004638671875, 1.9317626953125, 1.9317626953125, 1.9622802734375, 2.0294189453125, 2.0794677734375, 2.0794677734375, 2.117919921875, 2.117919921875, 2.117919921875, 2.117919921875, 2.13165283203125, 2.13165283203125, 2.10845947265625, 2.10845947265625, 2.081298828125, 2.081298828125, 2.081298828125, 2.081298828125, 2.1026611328125, 2.1026611328125, 2.12158203125, 2.12158203125, 2.10052490234375, 2.10052490234375, 2.06390380859375, 2.06390380859375, 2.06298828125, 2.06298828125, 2.06298828125, 2.06298828125, 2.06085205078125, 2.06085205078125, 2.01934814453125, 2.04559326171875, 2.04559326171875, 2.08465576171875, 2.08465576171875, 2.1002197265625, 2.1002197265625, 2.06512451171875, 2.06512451171875, 2.06512451171875, 2.06512451171875, 2.0684814453125, 2.0684814453125, 2.110595703125, 2.110595703125, 2.14202880859375, 2.14202880859375, 2.14202880859375, 2.14202880859375, 2.1209716796875, 2.1209716796875, 2.113037109375, 2.113037109375, 2.21405029296875, 2.21405029296875, 2.24609375, 2.24609375, 2.24609375, 2.24609375, 2.25006103515625, 2.25006103515625, 2.26287841796875, 2.26287841796875, 2.308349609375, 2.308349609375, 2.308349609375, 2.308349609375, 2.32818603515625, 2.32818603515625, 2.35137939453125, 2.35137939453125, 2.3785400390625, 2.3785400390625, 2.43133544921875, 2.43133544921875, 2.43133544921875, 2.43133544921875, 2.4462890625, 2.4462890625, 2.457275390625, 2.457275390625, 2.454833984375, 2.454833984375, 2.44842529296875, 2.44842529296875, 2.44842529296875, 2.44842529296875, 2.4420166015625, 2.4420166015625, 2.44140625, 2.44140625, 2.43133544921875, 2.43133544921875, 2.3736572265625, 2.3736572265625, 2.3736572265625, 2.3736572265625, 2.3748779296875, 2.3748779296875, 2.43011474609375, 2.43011474609375, 2.4310302734375, 2.4310302734375, 2.4310302734375, 2.4310302734375, 2.3992919921875, 2.3992919921875, 2.354736328125, 2.354736328125, 2.37518310546875, 2.37518310546875, 2.32421875, 2.32421875, 2.32421875, 2.32421875, 2.28912353515625, 2.28912353515625, 2.276611328125, 2.276611328125, 2.27386474609375, 2.27386474609375, 2.27386474609375, 2.27386474609375, 2.261962890625, 2.261962890625, 2.23236083984375, 2.23236083984375, 2.144775390625, 2.144775390625, 2.12890625, 2.12890625, 2.12890625, 2.12890625, 2.17193603515625, 2.17193603515625, 2.138671875, 2.138671875, 2.10052490234375, 2.10052490234375, 2.09991455078125, 2.09991455078125, 2.09991455078125, 2.09991455078125, 2.127685546875, 2.127685546875, 2.1038818359375, 2.1038818359375, 2.061767578125, 2.061767578125, 2.061767578125, 2.061767578125, 2.0648193359375, 2.0648193359375, 2.0849609375, 2.0849609375, 2.0782470703125, 2.0782470703125]",0.3088157732824609,-1.889064851060514,accepted,1.6216567000374198,2.104548600036651
pgACC-TUS-staircase,,1,2024-02-13_11h43.05.255,None,02,,,-0.0665283203125,2.4460274832589284,2.5502522786458335,2.0050048828125,2.277628580729167,2.344156901041667,21,11,7,11,303,6,5,6.970075926753014,"[0.0323486328125, 0.03143310546875, 0.03021240234375, 0.03021240234375, 0.03021240234375, 0.030517578125, 0.030517578125, 0.030517578125, 0.03082275390625, 0.030517578125, 0.03082275390625, 0.0323486328125, 0.0323486328125, 0.05096435546875, 0.06561279296875, 0.06561279296875, 0.06927490234375, 0.06805419921875, 0.06805419921875, 0.06805419921875, 0.09124755859375, 0.09124755859375, 0.126953125, 0.19287109375, 0.2972412109375, 0.2972412109375, 0.43701171875, 0.56610107421875, 0.66131591796875, 0.76751708984375, 0.76751708984375, 0.897216796875, 0.99212646484375, 1.11541748046875, 1.11541748046875, 1.1865234375, 1.263427734375, 1.34552001953125, 1.34552001953125, 1.3818359375, 1.3818359375, 1.44989013671875, 1.44989013671875, 1.50970458984375, 1.50970458984375, 1.5478515625, 1.5478515625, 1.5478515625, 1.5478515625, 1.55609130859375, 1.55609130859375, 1.57135009765625, 1.57135009765625, 1.61865234375, 1.61865234375, 1.61865234375, 1.61865234375, 1.6357421875, 1.6357421875, 1.60888671875, 1.60888671875, 1.58477783203125, 1.58477783203125, 1.6064453125, 1.6064453125, 1.6064453125, 1.6064453125, 1.6046142578125, 1.6046142578125, 1.57684326171875, 1.57684326171875, 1.5673828125, 1.5673828125, 1.59393310546875, 1.59393310546875, 1.59393310546875, 1.59393310546875, 1.6064453125, 1.6064453125, 1.6058349609375, 1.6058349609375, 1.59332275390625, 1.59332275390625, 1.5887451171875, 1.5887451171875, 1.5966796875, 1.5966796875, 1.5966796875, 1.5966796875, 1.6046142578125, 1.6046142578125, 1.60736083984375, 1.60736083984375, 1.60736083984375, 1.60736083984375, 1.60400390625, 1.60400390625, 1.59881591796875, 1.59881591796875, 1.5948486328125, 1.5948486328125, 1.58203125, 1.58203125, 1.58203125, 1.58203125, 1.56951904296875, 1.56951904296875, 1.58294677734375, 1.58294677734375, 1.58538818359375, 1.58538818359375, 1.5594482421875, 1.5594482421875, 1.539306640625, 1.539306640625, 1.539306640625, 1.539306640625, 1.53900146484375, 1.53900146484375, 1.54998779296875, 1.54998779296875, 1.5380859375, 1.5380859375, 1.5380859375, 1.5380859375, 1.522216796875, 1.522216796875, 1.52099609375, 1.52099609375, 1.519775390625, 1.519775390625, 1.49749755859375, 1.49749755859375, 1.5057373046875, 1.5057373046875, 1.5057373046875, 1.5057373046875, 1.54876708984375, 1.54876708984375, 1.54571533203125, 1.54571533203125, 1.5289306640625, 1.5289306640625, 1.5289306640625, 1.5289306640625, 1.54449462890625, 1.54449462890625, 1.57135009765625, 1.57135009765625, 1.5582275390625, 1.5582275390625, 1.5582275390625, 1.5582275390625, 1.54144287109375, 1.54144287109375, 1.558837890625, 1.558837890625, 1.5875244140625, 1.5875244140625, 1.5875244140625, 1.5875244140625]",0.2616170762158422,-0.11736783816859209,accepted,1.3216452000197023,1.6295787000562996
pgACC-TUS-staircase,,1,2024-02-13_11h43.05.255,None,02,,,-0.0665283203125,2.4460274832589284,2.5502522786458335,2.0050048828125,2.277628580729167,2.344156901041667,22,7,4,7,310,5,4,5.343456900401965,"[-0.0091552734375, -0.00885009765625, -0.00885009765625, -0.00762939453125, -0.0079345703125, -0.0079345703125, -0.00823974609375, -0.00823974609375, -0.0079345703125, -0.0079345703125, -0.0067138671875, -0.0067138671875, -0.00579833984375, -0.00396728515625, -0.00396728515625, -0.00152587890625, 0.00213623046875, 0.0140380859375, 0.0225830078125, 0.0225830078125, 0.0439453125, 0.09918212890625, 0.14312744140625, 0.14312744140625, 0.22979736328125, 0.31097412109375, 0.45440673828125, 0.56427001953125, 0.56427001953125, 0.70556640625, 0.88897705078125, 0.97869873046875, 0.97869873046875, 1.099853515625, 1.181640625, 1.181640625, 1.24908447265625, 1.24908447265625, 1.35986328125, 1.35986328125, 1.35986328125, 1.35986328125, 1.43096923828125, 1.43096923828125, 1.4581298828125, 1.4581298828125, 1.4910888671875, 1.4910888671875, 1.4910888671875, 1.4910888671875, 1.4984130859375, 1.4984130859375, 1.4984130859375, 1.4984130859375, 1.4874267578125, 1.4874267578125, 1.47369384765625, 1.47369384765625, 1.47369384765625, 1.47369384765625, 1.4556884765625, 1.4556884765625, 1.429443359375, 1.429443359375, 1.35711669921875, 1.35711669921875, 1.32049560546875, 1.32049560546875, 1.32049560546875, 1.32049560546875, 1.31988525390625, 1.31988525390625, 1.31256103515625, 1.31256103515625, 1.28570556640625, 1.28570556640625, 1.26800537109375, 1.26800537109375, 1.26800537109375, 1.26800537109375, 1.27197265625, 1.27197265625, 1.2646484375, 1.2646484375, 1.24969482421875, 1.24969482421875, 1.24969482421875, 1.24969482421875, 1.24969482421875, 1.24969482421875, 1.2567138671875, 1.2567138671875, 1.25396728515625, 1.25396728515625, 1.251220703125, 1.251220703125, 1.251220703125, 1.251220703125, 1.26312255859375, 1.26312255859375, 1.2591552734375, 1.2591552734375, 1.23870849609375, 1.23870849609375, 1.23870849609375, 1.23870849609375, 1.23931884765625, 1.23931884765625, 1.26708984375, 1.26708984375, 1.28570556640625, 1.28570556640625, 1.28570556640625, 1.28570556640625, 1.26983642578125, 1.26983642578125, 1.2646484375, 1.2646484375, 1.28814697265625, 1.28814697265625, 1.28662109375, 1.28662109375, 1.28662109375, 1.28662109375, 1.26068115234375, 1.26068115234375, 1.2518310546875, 1.2518310546875, 1.251220703125, 1.251220703125, 1.251220703125, 1.251220703125, 1.2493896484375, 1.2493896484375, 1.24908447265625, 1.24908447265625, 1.26495361328125, 1.26495361328125, 1.27105712890625, 1.27105712890625, 1.27105712890625, 1.27105712890625, 1.26251220703125, 1.26251220703125, 1.24664306640625, 1.24664306640625, 1.2408447265625, 1.2408447265625, 1.2408447265625, 1.2408447265625, 1.241455078125, 1.241455078125, 1.2347412109375, 1.2347412109375, 1.220703125, 1.220703125, 1.217041015625, 1.217041015625]",0.2616170762158422,0.4595730946039458,accepted,1.3806466001551598,1.5709734000265598
pgACC-TUS-staircase,,1,2024-02-13_11h43.05.255,None,02,,,-0.0665283203125,2.4460274832589284,2.5502522786458335,2.0050048828125,2.277628580729167,2.344156901041667,23,4,8,4,314,4,6,4.534167038856632,"[0.03387451171875, 0.03997802734375, 0.0433349609375, 0.0433349609375, 0.042724609375, 0.042724609375, 0.04852294921875, 0.04852294921875, 0.052490234375, 0.05645751953125, 0.05645751953125, 0.06011962890625, 0.0653076171875, 0.0653076171875, 0.0714111328125, 0.074462890625, 0.074462890625, 0.08453369140625, 0.09185791015625, 0.1007080078125, 0.1239013671875, 0.1239013671875, 0.155029296875, 0.225830078125, 0.26885986328125, 0.26885986328125, 0.32867431640625, 0.4144287109375, 0.528564453125, 0.528564453125, 0.61187744140625, 0.7196044921875, 0.841064453125, 0.92071533203125, 0.92071533203125, 0.92071533203125, 0.92071533203125, 0.97198486328125, 0.97198486328125, 1.03179931640625, 1.03179931640625, 1.08245849609375, 1.08245849609375, 1.10137939453125, 1.10137939453125, 1.10137939453125, 1.10137939453125, 1.11328125, 1.11328125, 1.151123046875, 1.151123046875, 1.19232177734375, 1.19232177734375, 1.19171142578125, 1.19171142578125, 1.19171142578125, 1.19171142578125, 1.187744140625, 1.187744140625, 1.1968994140625, 1.1968994140625, 1.19781494140625, 1.19781494140625, 1.19781494140625, 1.19781494140625, 1.16912841796875, 1.16912841796875, 1.15966796875, 1.15966796875, 1.1541748046875, 1.1541748046875, 1.1541748046875, 1.1541748046875, 1.13067626953125, 1.13067626953125, 1.10870361328125, 1.10870361328125, 1.09893798828125, 1.09893798828125, 1.0919189453125, 1.0919189453125, 1.0919189453125, 1.0919189453125, 1.04705810546875, 1.04705810546875, 1.00982666015625, 1.00982666015625, 0.9881591796875, 0.9881591796875, 0.9881591796875, 0.9881591796875, 0.9881591796875, 0.9881591796875, 0.9765625, 0.9765625, 0.97686767578125, 0.97686767578125, 0.97686767578125, 0.97686767578125, 0.9814453125, 0.9814453125, 0.98175048828125, 0.98175048828125, 0.9771728515625, 0.9771728515625, 0.986328125, 0.986328125, 0.986328125, 0.986328125, 1.00372314453125, 1.00372314453125, 0.99884033203125, 0.99884033203125, 0.99395751953125, 0.99395751953125, 1.03515625, 1.03515625, 1.03515625, 1.03515625, 1.09222412109375, 1.09222412109375, 1.10595703125, 1.10595703125, 1.10687255859375, 1.10687255859375, 1.11968994140625, 1.11968994140625, 1.13555908203125, 1.13555908203125, 1.13555908203125, 1.13555908203125, 1.12945556640625, 1.12945556640625, 1.11541748046875, 1.11541748046875, 1.114501953125, 1.114501953125, 1.114501953125, 1.114501953125, 1.11541748046875, 1.11541748046875, 1.11114501953125, 1.11114501953125, 1.099853515625, 1.099853515625, 1.099853515625, 1.099853515625, 1.0992431640625, 1.0992431640625, 1.08795166015625, 1.08795166015625, 1.05438232421875, 1.05438232421875, 1.03271484375, 1.03271484375]",0.21557792475132195,-0.1858732194534749,accepted,2.25408470002003,1.540724400198087
pgACC-TUS-staircase,,1,2024-02-13_11h43.05.255,None,02,,,-0.0665283203125,2.4460274832589284,2.5502522786458335,2.0050048828125,2.277628580729167,2.344156901041667,24,8,13,0,314,6,7,0,"[]",0.2610898860826638,0.23919470895241002,rejected,1.344006400089711,0
pgACC-TUS-staircase,,1,2024-02-13_11h43.05.255,None,02,,,-0.0665283203125,2.4460274832589284,2.5502522786458335,2.0050048828125,2.277628580729167,2.344156901041667,25,13,29,0,314,7,10,0,"[]",0.3061051303577258,0.20659558194947358,rejected,1.4524556000251323,0
pgACC-TUS-staircase,,1,2024-02-13_11h43.05.255,None,02,,,-0.0665283203125,2.4460274832589284,2.5502522786458335,2.0050048828125,2.277628580729167,2.344156901041667,26,29,13,0,314,10,6,0,"[]",0.3061051303577258,-1.6105130357725805,rejected,2.5392795000225306,0
pgACC-TUS-staircase,,1,2024-02-13_11h43.05.255,None,02,,,-0.0665283203125,2.4460274832589284,2.5502522786458335,2.0050048828125,2.277628580729167,2.344156901041667,27,13,11,0,314,6,6,0,"[]",0.3502072459270067,1.9802153071218704,rejected,1.917747100116685,0
pgACC-TUS-staircase,,1,2024-02-13_11h43.05.255,None,02,,,-0.0665283203125,2.4460274832589284,2.5502522786458335,2.0050048828125,2.277628580729167,2.344156901041667,28,11,27,0,314,6,9,0,"[]",0.3502072459270067,-1.6074608533722419,rejected,1.9357828998472542,0
pgACC-TUS-staircase,,1,2024-02-13_11h43.05.255,None,02,,,-0.0665283203125,2.4460274832589284,2.5502522786458335,2.0050048828125,2.277628580729167,2.344156901041667,29,27,14,27,341,9,7,9.664582402858418,"[-0.0128173828125, -0.01129150390625, -0.01068115234375, -0.00885009765625, -0.00885009765625, -0.0067138671875, -0.00457763671875, -0.00457763671875, -0.003662109375, -0.00335693359375, -0.00335693359375, -0.0030517578125, -0.0006103515625, -0.0006103515625, 0.00030517578125, 0.00396728515625, 0.01129150390625, 0.04180908203125, 0.04180908203125, 0.10284423828125, 0.21636962890625, 0.28900146484375, 0.28900146484375, 0.42633056640625, 0.6024169921875, 0.73394775390625, 0.73394775390625, 0.9014892578125, 1.031494140625, 1.1199951171875, 1.19720458984375, 1.19720458984375, 1.29486083984375, 1.39495849609375, 1.49810791015625, 1.49810791015625, 1.585693359375, 1.65283203125, 1.75018310546875, 1.75018310546875, 1.83197021484375, 1.9091796875, 1.9403076171875, 1.983642578125, 1.983642578125, 2.03521728515625, 2.0977783203125, 2.0977783203125, 2.2198486328125, 2.2198486328125, 2.2943115234375, 2.2943115234375, 2.2943115234375, 2.2943115234375, 2.38494873046875, 2.38494873046875, 2.4542236328125, 2.4542236328125, 2.47161865234375, 2.47161865234375, 2.47161865234375, 2.47161865234375, 2.501220703125, 2.501220703125, 2.46795654296875, 2.46795654296875, 2.4639892578125, 2.4639892578125, 2.4639892578125, 2.4639892578125, 2.4853515625, 2.4853515625, 2.4688720703125, 2.4688720703125, 2.44140625, 2.44140625, 2.44140625, 2.44140625, 2.43865966796875, 2.43865966796875, 2.43316650390625, 2.43316650390625, 2.325439453125, 2.325439453125, 2.325439453125, 2.325439453125, 2.2808837890625, 2.2808837890625, 2.3162841796875, 2.3162841796875, 2.3248291015625, 2.3248291015625, 2.3248291015625, 2.3248291015625, 2.27996826171875, 2.27996826171875, 2.2607421875, 2.2607421875, 2.29583740234375, 2.29583740234375, 2.30224609375, 2.30224609375, 2.30224609375, 2.30224609375, 2.2772216796875, 2.2772216796875, 2.29522705078125, 2.29522705078125, 2.33062744140625, 2.33062744140625, 2.342529296875, 2.342529296875, 2.342529296875, 2.342529296875, 2.308349609375, 2.308349609375, 2.303466796875, 2.303466796875, 2.3028564453125, 2.3028564453125, 2.2772216796875, 2.2772216796875, 2.25189208984375, 2.25189208984375, 2.25189208984375, 2.25189208984375, 2.2467041015625, 2.2467041015625, 2.254638671875, 2.254638671875, 2.25677490234375, 2.25677490234375, 2.25677490234375, 2.25677490234375, 2.21649169921875, 2.21649169921875, 2.22015380859375, 2.22015380859375, 2.24853515625, 2.24853515625, 2.24853515625, 2.24853515625, 2.2503662109375, 2.2503662109375, 2.20367431640625, 2.20367431640625, 2.1844482421875, 2.1844482421875, 2.1856689453125, 2.1856689453125, 2.1856689453125, 2.1856689453125, 2.1710205078125, 2.1710205078125, 2.14752197265625, 2.14752197265625, 2.17926025390625, 2.17926025390625, 2.2125244140625, 2.2125244140625, 2.2125244140625, 2.2125244140625, 2.20428466796875, 2.20428466796875, 2.19085693359375, 2.19085693359375, 2.20123291015625, 2.20123291015625, 2.20123291015625, 2.20123291015625]",0.3069263947003378,-1.3667869200875415,accepted,1.8360534000676125,1.7679718001745641
pgACC-TUS-staircase,,1,2024-02-13_11h43.05.255,None,02,,,-0.0665283203125,2.4460274832589284,2.5502522786458335,2.0050048828125,2.277628580729167,2.344156901041667,30,14,26,0,341,7,9,0,"[]",0.3069263947003378,-1.0393933403165505,rejected,2.7959290998987854,0
pgACC-TUS-staircase,,1,2024-02-13_11h43.05.255,None,02,,,-0.0665283203125,2.4460274832589284,2.5502522786458335,2.0050048828125,2.277628580729167,2.344156901041667,31,26,20,26,367,9,8,9.820008932559176,"[0.013427734375, 0.01434326171875, 0.01434326171875, 0.01922607421875, 0.02166748046875, 0.02166748046875, 0.02288818359375, 0.0238037109375, 0.02349853515625, 0.02349853515625, 0.02532958984375, 0.0286865234375, 0.03082275390625, 0.03326416015625, 0.03326416015625, 0.03875732421875, 0.06103515625, 0.078125, 0.078125, 0.09002685546875, 0.10101318359375, 0.12908935546875, 0.2130126953125, 0.2130126953125, 0.26824951171875, 0.33355712890625, 0.4486083984375, 0.4486083984375, 0.60699462890625, 0.7232666015625, 0.9112548828125, 1.0760498046875, 1.0760498046875, 1.2127685546875, 1.322021484375, 1.4251708984375, 1.4251708984375, 1.49322509765625, 1.58599853515625, 1.646728515625, 1.69525146484375, 1.69525146484375, 1.76971435546875, 1.8316650390625, 1.866455078125, 1.866455078125, 1.8768310546875, 1.89300537109375, 1.925048828125, 1.951904296875, 1.951904296875, 1.99981689453125, 2.034912109375, 2.039794921875, 2.039794921875, 2.04925537109375, 2.07550048828125, 2.07550048828125, 2.0831298828125, 2.0831298828125, 2.10479736328125, 2.10479736328125, 2.10479736328125, 2.10479736328125, 2.1197509765625, 2.1197509765625, 2.11944580078125, 2.11944580078125, 2.11639404296875, 2.11639404296875, 2.11639404296875, 2.11639404296875, 2.13836669921875, 2.13836669921875, 2.16796875, 2.16796875, 2.193603515625, 2.193603515625, 2.197265625, 2.197265625, 2.197265625, 2.197265625, 2.18994140625, 2.18994140625, 2.198486328125, 2.198486328125, 2.21405029296875, 2.21405029296875, 2.21405029296875, 2.21405029296875, 2.215576171875, 2.215576171875, 2.2186279296875, 2.2186279296875, 2.22320556640625, 2.22320556640625, 2.23724365234375, 2.23724365234375, 2.23724365234375, 2.23724365234375, 2.24212646484375, 2.24212646484375, 2.236328125, 2.236328125, 2.239990234375, 2.239990234375, 2.239990234375, 2.239990234375, 2.237548828125, 2.237548828125, 2.22320556640625, 2.22320556640625, 2.18902587890625, 2.18902587890625, 2.18902587890625, 2.18902587890625, 2.1002197265625, 2.1002197265625, 2.0452880859375, 2.0318603515625, 2.0361328125, 2.0361328125, 2.02117919921875, 1.97998046875, 1.981201171875, 1.981201171875, 2.00286865234375, 1.9989013671875, 1.954345703125, 1.97723388671875, 1.97723388671875, 1.96929931640625, 1.95098876953125, 1.98577880859375, 1.98577880859375, 2.02911376953125, 2.05474853515625, 2.05474853515625, 2.0660400390625, 2.0660400390625, 2.08740234375, 2.08740234375, 2.08740234375, 2.08740234375, 2.11181640625, 2.11181640625, 2.10845947265625, 2.10845947265625, 2.1337890625, 2.1337890625, 2.1337890625, 2.1337890625, 2.16278076171875, 2.16278076171875, 2.216796875, 2.216796875, 2.24090576171875, 2.24090576171875, 2.247314453125, 2.247314453125, 2.247314453125, 2.247314453125, 2.25006103515625, 2.25006103515625, 2.2491455078125, 2.2491455078125, 2.2503662109375, 2.2503662109375, 2.2503662109375, 2.2503662109375, 2.25006103515625, 2.25006103515625, 2.239990234375, 2.239990234375, 2.2467041015625, 2.2467041015625, 2.255859375, 2.255859375, 2.255859375, 2.255859375, 2.2674560546875, 2.2674560546875, 2.27630615234375, 2.27630615234375, 2.27020263671875, 2.27020263671875, 2.27020263671875, 2.27020263671875, 2.26318359375, 2.26318359375, 2.2576904296875, 2.2576904296875, 2.2540283203125, 2.2540283203125, 2.2509765625, 2.2509765625, 2.2509765625, 2.2509765625, 2.23297119140625, 2.23297119140625, 2.216796875, 2.216796875, 2.188720703125, 2.188720703125, 2.188720703125, 2.188720703125, 2.10357666015625, 2.10357666015625, 2.11090087890625, 2.11090087890625, 2.11395263671875, 2.11395263671875, 2.10845947265625, 2.10845947265625, 2.10845947265625, 2.10845947265625, 2.10693359375, 2.10693359375, 2.1240234375, 2.1240234375, 2.1044921875, 2.1044921875, 2.08282470703125, 2.08282470703125, 2.08282470703125, 2.08282470703125, 2.08160400390625, 2.08160400390625, 2.09197998046875, 2.09197998046875, 2.11273193359375, 2.11273193359375, 2.11181640625, 2.11181640625, 2.11181640625, 2.11181640625, 2.1142578125, 2.1142578125, 2.13714599609375, 2.13714599609375, 2.144775390625, 2.144775390625, 2.144775390625, 2.144775390625, 2.1575927734375, 2.1575927734375, 2.19757080078125, 2.19757080078125, 2.2198486328125, 2.2198486328125, 2.2198486328125, 2.2198486328125, 2.21893310546875, 2.21893310546875, 2.21893310546875, 2.21893310546875, 2.23663330078125, 2.23663330078125, 2.23663330078125, 2.23663330078125]",0.3069263947003378,1.1389620292726406,accepted,1.4187785000540316,2.757135800085962
pgACC-TUS-staircase,,1,2024-02-13_11h43.05.255,None,02,,,-0.0665283203125,2.4460274832589284,2.5502522786458335,2.0050048828125,2.277628580729167,2.344156901041667,32,20,14,20,387,8,7,8.681107637338096,"[0.0067138671875, 0.0067138671875, 0.00701904296875, 0.00701904296875, 0.00701904296875, 0.0067138671875, 0.00732421875, 0.00640869140625, 0.00640869140625, 0.00640869140625, 0.00640869140625, 0.0067138671875, 0.0067138671875, 0.00579833984375, 0.00701904296875, 0.00701904296875, 0.0067138671875, 0.00701904296875, 0.009765625, 0.009765625, 0.02593994140625, 0.078125, 0.15777587890625, 0.15777587890625, 0.25482177734375, 0.3271484375, 0.498046875, 0.61187744140625, 0.61187744140625, 0.745849609375, 0.9600830078125, 1.124267578125, 1.124267578125, 1.2249755859375, 1.31195068359375, 1.40106201171875, 1.40106201171875, 1.46514892578125, 1.5008544921875, 1.55029296875, 1.600341796875, 1.600341796875, 1.62109375, 1.65252685546875, 1.73095703125, 1.73980712890625, 1.73980712890625, 1.74896240234375, 1.7510986328125, 1.77825927734375, 1.77825927734375, 1.81182861328125, 1.83349609375, 1.83349609375, 1.8414306640625, 1.8414306640625, 1.88079833984375, 1.88079833984375, 1.88079833984375, 1.88079833984375, 1.932373046875, 1.932373046875, 1.9775390625, 1.9775390625, 1.97967529296875, 1.97967529296875, 1.97967529296875, 1.97967529296875, 2.0037841796875, 2.0037841796875, 2.0318603515625, 2.0318603515625, 2.05841064453125, 2.05841064453125, 2.081298828125, 2.081298828125, 2.081298828125, 2.081298828125, 2.09197998046875, 2.09197998046875, 2.07305908203125, 2.07305908203125, 2.0782470703125, 2.0782470703125, 2.0782470703125, 2.0782470703125, 2.08648681640625, 2.08648681640625, 2.08740234375, 2.08740234375, 2.07733154296875, 2.07733154296875, 2.0672607421875, 2.0672607421875, 2.0672607421875, 2.0672607421875, 2.05474853515625, 2.05474853515625, 2.047119140625, 2.047119140625, 2.04498291015625, 2.04498291015625, 2.02545166015625, 2.02545166015625, 2.02545166015625, 2.02545166015625, 2.00927734375, 2.00927734375, 2.00958251953125, 2.00958251953125, 2.010498046875, 2.010498046875, 2.02117919921875, 2.02117919921875, 2.02117919921875, 2.02117919921875, 2.01568603515625, 2.01568603515625, 2.00347900390625, 2.00347900390625, 2.00469970703125, 2.00469970703125, 2.0123291015625, 2.0123291015625, 2.0123291015625, 2.0123291015625, 2.01263427734375, 2.01263427734375, 2.01690673828125, 2.01690673828125, 2.0330810546875, 2.0330810546875, 2.0330810546875, 2.0330810546875, 2.03125, 2.03125, 2.041015625, 2.041015625, 2.049560546875, 2.049560546875, 2.0208740234375, 2.0208740234375, 2.0208740234375, 2.0208740234375, 2.02850341796875, 2.02850341796875, 2.0367431640625, 2.0367431640625, 2.0166015625, 2.0166015625, 2.0166015625, 2.0166015625, 2.01568603515625, 2.01568603515625, 2.02484130859375, 2.02484130859375, 2.0196533203125, 2.0196533203125, 2.0196533203125, 2.0196533203125, 2.0074462890625, 2.0074462890625, 2.00286865234375, 2.00286865234375, 1.98516845703125, 1.98516845703125, 1.982421875, 1.982421875, 1.982421875, 1.982421875, 1.97906494140625, 1.97906494140625, 1.97723388671875, 1.97723388671875]",0.3069263947003378,0.35671073917838214,accepted,1.6977255998644978,1.8494100999087095
pgACC-TUS-staircase,,1,2024-02-13_11h43.05.255,None,02,,,-0.0665283203125,2.4460274832589284,2.5502522786458335,2.0050048828125,2.277628580729167,2.344156901041667,33,14,28,0,387,7,10,0,"[]",0.3069263947003378,-1.0393933403165505,rejected,1.8811059999279678,0
pgACC-TUS-staircase,,1,2024-02-13_11h43.05.255,None,02,,,-0.0665283203125,2.4460274832589284,2.5502522786458335,2.0050048828125,2.277628580729167,2.344156901041667,34,28,17,-1,386,10,8,0,"[0.00396728515625, 0.00457763671875, 0.003662109375, 0.003662109375, 0.0042724609375, 0.0048828125, 0.0048828125, 0.0048828125, 0.00885009765625, 0.01373291015625, 0.01373291015625, 0.01708984375, 0.01678466796875, 0.01922607421875, 0.01922607421875, 0.03265380859375, 0.069580078125, 0.101318359375, 0.172119140625, 0.172119140625, 0.26641845703125, 0.3997802734375, 0.55633544921875, 0.79010009765625, 0.79010009765625, 1.03790283203125, 1.2200927734375, 1.375732421875, 1.5155029296875, 1.5155029296875, 1.6290283203125, 1.71875, 1.8048095703125, 1.8048095703125, 1.8304443359375, 1.86614990234375, 1.88323974609375, 1.91253662109375, 1.91253662109375, 1.94366455078125, 1.97906494140625, 2.0257568359375, 2.0257568359375, 2.05169677734375, 2.061767578125, 2.08465576171875, 2.1258544921875, 2.1258544921875, 2.1661376953125, 2.19757080078125, 2.19757080078125, 2.22747802734375, 2.24700927734375, 2.24761962890625, 2.24365234375, 2.24365234375, 2.25799560546875, 2.279052734375, 2.279052734375, 2.29095458984375, 2.29095458984375, 2.29095458984375, 2.29095458984375, 2.29095458984375, 2.29095458984375, 2.2943115234375, 2.2943115234375, 2.31048583984375, 2.31048583984375, 2.30926513671875, 2.30926513671875, 2.30926513671875, 2.30926513671875, 2.3040771484375, 2.3040771484375, 2.3065185546875, 2.3065185546875, 2.31170654296875, 2.31170654296875, 2.31170654296875, 2.31170654296875, 2.31170654296875, 2.31170654296875, 2.313232421875, 2.313232421875, 2.31414794921875, 2.31414794921875, 2.31597900390625, 2.31597900390625, 2.31597900390625, 2.31597900390625, 2.31536865234375, 2.31536865234375, 2.314453125, 2.314453125, 2.31536865234375, 2.31536865234375, 2.31536865234375, 2.31536865234375, 2.31475830078125, 2.31475830078125, 2.31597900390625, 2.31597900390625, 2.31903076171875, 2.31903076171875, 2.32330322265625, 2.32330322265625, 2.32330322265625, 2.32330322265625, 2.3223876953125, 2.3223876953125, 2.318115234375, 2.318115234375, 2.3223876953125, 2.3223876953125, 2.3223876953125, 2.3223876953125, 2.315673828125, 2.315673828125, 2.3095703125, 2.3095703125, 2.30865478515625, 2.30865478515625, 2.30865478515625, 2.30865478515625, 2.3065185546875, 2.3065185546875, 2.30224609375, 2.30224609375, 2.3028564453125, 2.3028564453125, 2.3089599609375, 2.3089599609375, 2.3089599609375, 2.3089599609375, 2.31048583984375, 2.31048583984375, 2.30712890625, 2.30712890625, 2.30194091796875, 2.30194091796875, 2.30194091796875, 2.30194091796875, 2.3040771484375, 2.3040771484375, 2.29736328125, 2.29736328125, 2.28546142578125, 2.28546142578125, 2.28546142578125, 2.28546142578125, 2.27508544921875, 2.2772216796875, 2.2772216796875, 2.2772216796875, 2.2650146484375, 2.25921630859375, 2.25860595703125, 2.25860595703125, 2.25860595703125, 2.2552490234375, 2.25433349609375, 2.25830078125, 2.25830078125, 2.25921630859375, 2.249755859375, 2.24273681640625, 2.24273681640625, 2.23663330078125, 2.220458984375, 2.186279296875, 2.186279296875, 2.120361328125, 2.08984375, 2.07733154296875, 2.00286865234375, 2.00286865234375, 1.9219970703125, 1.91070556640625, 1.861572265625, 1.861572265625, 1.839599609375, 1.89544677734375, 1.947021484375, 1.971435546875, 1.971435546875, 2.03582763671875, 2.07305908203125, 2.1112060546875, 2.1112060546875, 2.149658203125, 2.1990966796875, 2.24090576171875, 2.26531982421875, 2.26531982421875, 2.2857666015625, 2.2857666015625, 2.30010986328125, 2.30010986328125, 2.315673828125, 2.315673828125, 2.33612060546875, 2.33612060546875, 2.33612060546875, 2.33612060546875, 2.3297119140625, 2.3297119140625, 2.3272705078125, 2.3272705078125, 2.31964111328125, 2.31964111328125, 2.31964111328125, 2.31964111328125, 2.31475830078125, 2.31475830078125, 2.3162841796875, 2.3162841796875, 2.330322265625, 2.330322265625, 2.330322265625, 2.330322265625, 2.3394775390625, 2.3394775390625, 2.35443115234375, 2.35443115234375, 2.357177734375, 2.357177734375, 2.33428955078125, 2.33428955078125, 2.33428955078125, 2.33428955078125, 2.33001708984375, 2.33001708984375, 2.33154296875, 2.33154296875, 2.332763671875, 2.332763671875, 2.332763671875, 2.332763671875, 2.333984375, 2.333984375, 2.34619140625, 2.34619140625, 2.35107421875, 2.35107421875, 2.3260498046875, 2.3260498046875, 2.3260498046875, 2.3260498046875, 2.314453125, 2.314453125, 2.315673828125, 2.315673828125, 2.330322265625, 2.330322265625, 2.332763671875, 2.332763671875, 2.332763671875, 2.332763671875, 2.32574462890625, 2.32574462890625, 2.32208251953125, 2.32208251953125, 2.301025390625, 2.301025390625, 2.279052734375, 2.279052734375, 2.279052734375, 2.279052734375, 2.2607421875, 2.25738525390625, 2.2589111328125, 2.2589111328125, 2.252197265625, 2.24822998046875, 2.24212646484375, 2.24212646484375, 2.23297119140625, 2.22137451171875, 2.22076416015625, 2.22381591796875, 2.22381591796875, 2.2100830078125, 2.20703125, 2.20703125, 2.20703125, 2.198486328125, 2.18994140625, 2.1881103515625, 2.1954345703125, 2.1954345703125, 2.20794677734375, 2.21527099609375, 2.2265625, 2.2265625, 2.22686767578125, 2.225341796875, 2.21954345703125, 2.21954345703125, 2.21343994140625, 2.22747802734375, 2.24822998046875, 2.25189208984375, 2.25189208984375, 2.25128173828125, 2.2564697265625, 2.2747802734375, 2.29705810546875, 2.29705810546875, 2.29705810546875, 2.29705810546875, 2.30621337890625, 2.30621337890625, 2.31201171875, 2.31201171875, 2.3193359375, 2.3193359375, 2.3193359375, 2.3193359375, 2.3291015625, 2.3291015625, 2.34527587890625, 2.34527587890625, 2.34771728515625, 2.34771728515625, 2.3431396484375, 2.3431396484375, 2.3431396484375, 2.3431396484375, 2.34100341796875, 2.34100341796875, 2.35321044921875, 2.35321044921875, 2.3809814453125, 2.3809814453125, 2.38677978515625, 2.38677978515625, 2.38677978515625, 2.38677978515625, 2.39410400390625, 2.39410400390625, 2.40447998046875, 2.40447998046875, 2.40631103515625, 2.40631103515625, 2.40631103515625, 2.40631103515625, 2.40081787109375, 2.40081787109375, 2.35565185546875, 2.35565185546875, 2.33551025390625, 2.33551025390625, 2.3291015625, 2.3291015625, 2.3291015625, 2.3291015625, 2.3260498046875, 2.3260498046875, 2.3138427734375, 2.3138427734375, 2.3138427734375, 2.3138427734375, 2.3046875, 2.3046875, 2.29827880859375, 2.29827880859375, 2.29095458984375, 2.29095458984375, 2.2674560546875, 2.2674560546875, 2.259521484375, 2.25311279296875, 2.2540283203125, 2.2491455078125, 2.2491455078125, 2.24517822265625, 2.2442626953125, 2.2491455078125, 2.2491455078125, 2.2467041015625, 2.24090576171875, 2.22198486328125, 2.22198486328125, 2.22259521484375, 2.22381591796875, 2.2259521484375, 2.2259521484375, 2.22137451171875, 2.20855712890625, 2.203369140625, 2.2100830078125, 2.2100830078125, 2.21160888671875, 2.198486328125, 2.1978759765625, 2.1978759765625, 2.20428466796875, 2.20001220703125, 2.20672607421875, 2.20672607421875, 2.2088623046875, 2.20672607421875, 2.20703125, 2.20947265625, 2.20947265625, 2.21405029296875, 2.21954345703125, 2.2412109375, 2.24212646484375, 2.24212646484375, 2.2418212890625, 2.24456787109375, 2.24578857421875, 2.257080078125, 2.257080078125, 2.26043701171875, 2.2637939453125, 2.26837158203125, 2.26837158203125, 2.26837158203125, 2.26226806640625, 2.261962890625, 2.261962890625, 2.2637939453125, 2.264404296875, 2.26837158203125, 2.28851318359375, 2.28851318359375, 2.28851318359375, 2.28851318359375, 2.29888916015625, 2.29888916015625, 2.30560302734375, 2.30560302734375, 2.31414794921875, 2.31414794921875, 2.3175048828125, 2.3175048828125, 2.3175048828125, 2.3175048828125, 2.31689453125, 2.31689453125, 2.314453125, 2.314453125, 2.31842041015625, 2.31842041015625, 2.31842041015625, 2.31842041015625, 2.3223876953125, 2.3223876953125, 2.322998046875, 2.322998046875, 2.31781005859375, 2.31781005859375, 2.31781005859375, 2.31781005859375, 2.3052978515625, 2.3052978515625, 2.30712890625, 2.30712890625, 2.30865478515625, 2.30865478515625, 2.310791015625, 2.310791015625, 2.310791015625, 2.310791015625, 2.31048583984375, 2.31048583984375, 2.31475830078125, 2.31475830078125, 2.3150634765625, 2.3150634765625, 2.31201171875, 2.31201171875, 2.31201171875, 2.31201171875, 2.3114013671875, 2.3114013671875, 2.30682373046875, 2.30682373046875, 2.2894287109375, 2.2894287109375, 2.2894287109375, 2.2894287109375, 2.2772216796875, 2.26959228515625, 2.26654052734375, 2.26654052734375, 2.2564697265625, 2.24151611328125, 2.22991943359375, 2.22991943359375, 2.21466064453125, 2.20733642578125, 2.196044921875, 2.1417236328125, 2.1417236328125, 2.09808349609375, 2.08892822265625, 2.09930419921875, 2.09930419921875, 2.11090087890625, 2.1002197265625, 2.08160400390625, 2.0697021484375, 2.0697021484375, 2.0635986328125, 2.06207275390625, 2.0574951171875, 2.0574951171875, 2.03094482421875, 2.020263671875, 2.0330810546875, 2.0330810546875, 2.05047607421875, 2.05413818359375, 2.05413818359375, 2.06939697265625, 2.06939697265625, 2.07183837890625, 2.07366943359375, 2.07427978515625, 2.07427978515625, 2.086181640625, 2.10113525390625, 2.1099853515625, 2.0782470703125, 2.0782470703125, 2.07672119140625, 2.08465576171875, 2.08770751953125, 2.07183837890625, 2.07183837890625, 2.049560546875, 2.05078125, 2.05474853515625, 2.05474853515625, 2.02056884765625, 1.9830322265625, 1.9757080078125, 1.9696044921875, 1.9696044921875, 1.94366455078125, 1.94000244140625, 1.94366455078125, 1.94366455078125, 1.934814453125, 1.93939208984375, 1.92138671875, 1.88140869140625, 1.88140869140625, 1.88812255859375, 1.88507080078125, 1.865234375, 1.865234375, 1.85943603515625, 1.8804931640625, 1.88262939453125, 1.864013671875, 1.864013671875, 1.87225341796875, 1.8939208984375, 1.87469482421875, 1.84539794921875, 1.84539794921875, 1.83807373046875, 1.846923828125, 1.795654296875, 1.795654296875, 1.6741943359375, 1.60430908203125, 1.5264892578125, 1.32781982421875, 1.0992431640625, 1.0992431640625, 0.72906494140625, 0.5352783203125, 0.3619384765625, 0.267333984375, 0.267333984375, 0.2044677734375, 0.147705078125, 0.1123046875, 0.086669921875, 0.086669921875, 0.07415771484375, 0.06927490234375, 0.0665283203125, 0.05706787109375, 0.05706787109375, 0.0445556640625, 0.040283203125, 0.03875732421875, 0.03875732421875, 0.03265380859375, 0.03082275390625, 0.02593994140625, 0.025634765625, 0.025634765625, 0.02655029296875, 0.02685546875, 0.0262451171875, 0.0262451171875, 0.02655029296875, 0.0262451171875, 0.02593994140625, 0.02685546875, 0.02685546875, 0.0262451171875, 0.0262451171875, 0.02685546875, 0.028076171875, 0.028076171875, 0.02777099609375, 0.02655029296875, 0.02655029296875, 0.025634765625, 0.025634765625, 0.02410888671875, 0.0225830078125, 0.02288818359375, 0.02166748046875, 0.02166748046875, 0.01861572265625]",0.2653857106890092,-2.692639470033779,accepted,1.647018700139597,8.003798200050369
pgACC-TUS-staircase,,1,2024-02-13_11h43.05.255,None,02,,,-0.0665283203125,2.4460274832589284,2.5502522786458335,2.0050048828125,2.277628580729167,2.344156901041667,35,17,25,0,386,8,9,0,"[]",0.3066218473503832,0.015314515903412484,rejected,3.5689214000012726,0
pgACC-TUS-staircase,,1,2024-02-13_11h43.05.255,None,02,,,-0.0665283203125,2.4460274832589284,2.5502522786458335,2.0050048828125,2.277628580729167,2.344156901041667,36,25,21,25,411,9,8,9.621706118803036,"[0.02227783203125, 0.02166748046875, 0.02166748046875, 0.0213623046875, 0.020751953125, 0.01983642578125, 0.01983642578125, 0.01953125, 0.02044677734375, 0.0201416015625, 0.0201416015625, 0.01953125, 0.0189208984375, 0.01861572265625, 0.01922607421875, 0.01922607421875, 0.023193359375, 0.0433349609375, 0.0823974609375, 0.0823974609375, 0.14801025390625, 0.2471923828125, 0.3216552734375, 0.47332763671875, 0.47332763671875, 0.63568115234375, 0.80413818359375, 1.01959228515625, 1.01959228515625, 1.2445068359375, 1.3861083984375, 1.50115966796875, 1.50115966796875, 1.56280517578125, 1.63360595703125, 1.66961669921875, 1.7474365234375, 1.7474365234375, 1.781005859375, 1.81549072265625, 1.824951171875, 1.8060302734375, 1.8060302734375, 1.79534912109375, 1.8109130859375, 1.81884765625, 1.837158203125, 1.837158203125, 1.85760498046875, 1.8768310546875, 1.893310546875, 1.91619873046875, 1.91619873046875, 1.9482421875, 1.96746826171875, 2.00714111328125, 2.044677734375, 2.044677734375, 2.05902099609375, 2.05902099609375, 2.06268310546875, 2.06268310546875, 2.07489013671875, 2.07489013671875, 2.07489013671875, 2.07489013671875, 2.08099365234375, 2.08099365234375, 2.10357666015625, 2.10357666015625, 2.1112060546875, 2.1112060546875, 2.1087646484375, 2.1087646484375, 2.1087646484375, 2.1087646484375, 2.109375, 2.109375, 2.12066650390625, 2.12066650390625, 2.127685546875, 2.127685546875, 2.13043212890625, 2.13043212890625, 2.13043212890625, 2.13043212890625, 2.13043212890625, 2.13043212890625, 2.137451171875, 2.137451171875, 2.1490478515625, 2.1490478515625, 2.18170166015625, 2.18170166015625, 2.18170166015625, 2.18170166015625, 2.18994140625, 2.18994140625, 2.18597412109375, 2.18597412109375, 2.18902587890625, 2.18902587890625, 2.18902587890625, 2.18902587890625, 2.18994140625, 2.18994140625, 2.18505859375, 2.18505859375, 2.1624755859375, 2.1624755859375, 2.1624755859375, 2.1624755859375, 2.1539306640625, 2.1539306640625, 2.1624755859375, 2.1624755859375, 2.17315673828125, 2.17315673828125, 2.17071533203125, 2.17071533203125, 2.17315673828125, 2.17315673828125, 2.17315673828125, 2.17315673828125, 2.18902587890625, 2.18902587890625, 2.18597412109375, 2.18597412109375, 2.18597412109375, 2.18597412109375, 2.15789794921875, 2.15789794921875, 2.15423583984375, 2.15423583984375, 2.15728759765625, 2.15728759765625, 2.17010498046875, 2.17010498046875, 2.17010498046875, 2.17010498046875, 2.1600341796875, 2.1600341796875, 2.14141845703125, 2.14141845703125, 2.11822509765625, 2.11822509765625, 2.11822509765625, 2.11822509765625, 2.08343505859375, 2.08343505859375, 2.05657958984375, 2.05657958984375, 2.0196533203125, 1.98394775390625, 1.98394775390625, 1.97998046875, 1.99249267578125, 1.9915771484375, 1.9915771484375, 1.98638916015625, 1.981201171875, 1.97662353515625, 1.97662353515625, 1.9781494140625, 1.99310302734375, 1.99951171875, 2.00347900390625, 2.00347900390625, 2.00164794921875, 2.01171875, 2.04864501953125, 2.06573486328125, 2.06573486328125, 2.06573486328125, 2.06573486328125, 2.07763671875, 2.07763671875, 2.08099365234375, 2.08099365234375, 2.086181640625, 2.086181640625, 2.099609375, 2.099609375, 2.099609375, 2.099609375, 2.11944580078125, 2.11944580078125, 2.1429443359375, 2.1429443359375, 2.149658203125, 2.149658203125, 2.149658203125, 2.149658203125, 2.18170166015625, 2.18170166015625, 2.2064208984375, 2.2064208984375, 2.23236083984375, 2.23236083984375, 2.23236083984375, 2.23236083984375, 2.24945068359375, 2.24945068359375, 2.2552490234375, 2.2552490234375, 2.2625732421875, 2.2625732421875, 2.26837158203125, 2.26837158203125, 2.26837158203125, 2.26837158203125, 2.27630615234375, 2.27630615234375, 2.28240966796875, 2.28240966796875, 2.28424072265625, 2.28424072265625, 2.301025390625, 2.301025390625, 2.301025390625, 2.301025390625, 2.29461669921875, 2.29461669921875, 2.2833251953125, 2.2833251953125, 2.2833251953125, 2.2833251953125, 2.2772216796875, 2.2772216796875, 2.28424072265625, 2.28424072265625, 2.29400634765625, 2.29400634765625, 2.29400634765625, 2.29400634765625, 2.29156494140625, 2.29156494140625, 2.27020263671875, 2.27020263671875, 2.254638671875, 2.254638671875, 2.2515869140625, 2.2515869140625, 2.2515869140625, 2.2515869140625, 2.254638671875, 2.254638671875, 2.25555419921875, 2.25555419921875, 2.252197265625, 2.252197265625, 2.252197265625, 2.252197265625, 2.2491455078125, 2.2491455078125, 2.25189208984375, 2.25189208984375, 2.2589111328125, 2.2589111328125, 2.2589111328125, 2.2589111328125, 2.25738525390625, 2.25738525390625, 2.24090576171875, 2.24090576171875, 2.2314453125, 2.2314453125, 2.227783203125, 2.227783203125, 2.227783203125, 2.227783203125, 2.23052978515625, 2.23052978515625, 2.230224609375, 2.230224609375, 2.2210693359375, 2.2210693359375, 2.20733642578125, 2.20733642578125, 2.20733642578125, 2.20733642578125, 2.20611572265625, 2.20611572265625, 2.20947265625, 2.20947265625, 2.20947265625, 2.20947265625, 2.20947265625, 2.20947265625, 2.19940185546875, 2.19940185546875, 2.19146728515625, 2.19146728515625]",0.3066218473503832,0.1636303646189603,accepted,3.091875799931586,3.058176799910143
pgACC-TUS-staircase,,1,2024-02-13_11h43.05.255,None,02,,,-0.0665283203125,2.4460274832589284,2.5502522786458335,2.0050048828125,2.277628580729167,2.344156901041667,37,21,19,0,411,8,7,0,"[]",0.34728460195265576,1.3762017695754736,rejected,1.540852400008589,0
pgACC-TUS-staircase,,1,2024-02-13_11h43.05.255,None,02,,,-0.0665283203125,2.4460274832589284,2.5502522786458335,2.0050048828125,2.277628580729167,2.344156901041667,38,19,4,19,430,7,3,7.449754354622598,"[0.11260986328125, 0.11260986328125, 0.11260986328125, 0.11138916015625, 0.11138916015625, 0.11077880859375, 0.10711669921875, 0.10711669921875, 0.10162353515625, 0.0982666015625, 0.09521484375, 0.09521484375, 0.09124755859375, 0.0885009765625, 0.09002685546875, 0.10223388671875, 0.10223388671875, 0.133056640625, 0.14862060546875, 0.19073486328125, 0.19073486328125, 0.2435302734375, 0.28839111328125, 0.389404296875, 0.54290771484375, 0.54290771484375, 0.7904052734375, 1.03271484375, 1.251220703125, 1.251220703125, 1.38916015625, 1.50604248046875, 1.60491943359375, 1.60491943359375, 1.673583984375, 1.673583984375, 1.673583984375, 1.673583984375, 1.76788330078125, 1.76788330078125, 1.78863525390625, 1.78863525390625, 1.8218994140625, 1.8218994140625, 1.85882568359375, 1.85882568359375, 1.85882568359375, 1.85882568359375, 1.84295654296875, 1.84295654296875, 1.8170166015625, 1.8170166015625, 1.82159423828125, 1.82159423828125, 1.82159423828125, 1.82159423828125, 1.83502197265625, 1.83502197265625, 1.8121337890625, 1.8121337890625, 1.7730712890625, 1.7730712890625, 1.76483154296875, 1.76483154296875, 1.76483154296875, 1.76483154296875, 1.78802490234375, 1.78802490234375, 1.80419921875, 1.80419921875, 1.77276611328125, 1.77276611328125, 1.77276611328125, 1.77276611328125, 1.74957275390625, 1.74957275390625, 1.72760009765625, 1.72760009765625, 1.71600341796875, 1.71600341796875, 1.74041748046875, 1.74041748046875, 1.74041748046875, 1.74041748046875, 1.7523193359375, 1.7523193359375, 1.73309326171875, 1.73309326171875, 1.71356201171875, 1.71356201171875, 1.74835205078125, 1.74835205078125, 1.74835205078125, 1.74835205078125, 1.7681884765625, 1.7681884765625, 1.74896240234375, 1.74896240234375, 1.749267578125, 1.749267578125, 1.76422119140625, 1.76422119140625, 1.76422119140625, 1.76422119140625, 1.7584228515625, 1.7584228515625, 1.7578125, 1.7578125, 1.77398681640625, 1.77398681640625, 1.77398681640625, 1.77398681640625, 1.76849365234375, 1.76849365234375, 1.767578125, 1.767578125, 1.76300048828125, 1.76300048828125, 1.73187255859375, 1.73187255859375, 1.73187255859375, 1.73187255859375, 1.74072265625, 1.74072265625, 1.75506591796875, 1.75506591796875, 1.728515625, 1.728515625, 1.6949462890625, 1.6949462890625, 1.6949462890625, 1.6949462890625, 1.68853759765625, 1.68853759765625, 1.68853759765625, 1.68853759765625, 1.697998046875, 1.697998046875, 1.697998046875, 1.697998046875, 1.6986083984375, 1.6986083984375, 1.69830322265625, 1.69830322265625, 1.68914794921875, 1.68914794921875, 1.68914794921875, 1.68914794921875, 1.68182373046875, 1.68182373046875, 1.68182373046875, 1.68182373046875, 1.69677734375, 1.69677734375]",0.34728460195265576,1.9830545043198669,accepted,2.4039010999258608,1.521667500026524
pgACC-TUS-staircase,,1,2024-02-13_11h43.05.255,None,02,,,-0.0665283203125,2.4460274832589284,2.5502522786458335,2.0050048828125,2.277628580729167,2.344156901041667,39,4,19,4,434,3,7,3.455560518088432,"[0.10406494140625, 0.10467529296875, 0.103759765625, 0.103759765625, 0.1031494140625, 0.1031494140625, 0.10467529296875, 0.10467529296875, 0.10833740234375, 0.11474609375, 0.11474609375, 0.11749267578125, 0.1165771484375, 0.1165771484375, 0.13519287109375, 0.1458740234375, 0.179443359375, 0.179443359375, 0.23834228515625, 0.29449462890625, 0.42083740234375, 0.42083740234375, 0.537109375, 0.6640625, 0.79681396484375, 0.79681396484375, 0.79681396484375, 0.79681396484375, 0.8990478515625, 0.8990478515625, 0.91888427734375, 0.91888427734375, 0.9454345703125, 0.9454345703125, 0.97442626953125, 0.97442626953125, 1.0430908203125, 1.0430908203125, 1.0430908203125, 1.0430908203125, 1.07025146484375, 1.07025146484375, 1.0699462890625, 1.0699462890625, 1.1016845703125, 1.1016845703125, 1.1016845703125, 1.1016845703125, 1.1126708984375, 1.1126708984375, 1.10748291015625, 1.10748291015625, 1.06597900390625, 1.06597900390625, 1.06597900390625, 1.06597900390625, 1.0247802734375, 1.0247802734375, 0.97503662109375, 0.97503662109375, 0.93414306640625, 0.93414306640625, 0.93414306640625, 0.93414306640625, 0.90057373046875, 0.90057373046875, 0.87860107421875, 0.87860107421875, 0.81695556640625, 0.81695556640625, 0.81695556640625, 0.81695556640625, 0.76812744140625, 0.76812744140625, 0.750732421875, 0.750732421875, 0.74462890625, 0.74462890625, 0.74462890625, 0.74462890625, 0.7318115234375, 0.7318115234375, 0.72540283203125, 0.72540283203125, 0.723876953125, 0.723876953125, 0.73089599609375, 0.73089599609375, 0.73089599609375, 0.73089599609375, 0.73394775390625, 0.73394775390625, 0.74371337890625, 0.74371337890625, 0.7745361328125, 0.7745361328125, 0.7745361328125, 0.7745361328125, 0.81146240234375, 0.81146240234375, 0.8551025390625, 0.8551025390625, 0.8782958984375, 0.8782958984375, 0.911865234375, 0.911865234375, 0.911865234375, 0.911865234375, 0.919189453125, 0.919189453125, 0.9130859375, 0.9130859375, 0.9130859375, 0.9130859375, 0.92071533203125, 0.92071533203125, 0.93536376953125, 0.93536376953125, 0.9393310546875, 0.9393310546875, 0.9295654296875, 0.9295654296875, 0.9295654296875, 0.9295654296875, 0.92498779296875, 0.92498779296875, 0.9185791015625, 0.9185791015625, 0.9033203125, 0.9033203125, 0.9033203125, 0.9033203125, 0.88409423828125, 0.88409423828125, 0.86029052734375, 0.86029052734375, 0.83709716796875, 0.83709716796875, 0.81939697265625, 0.81939697265625, 0.8026123046875, 0.8026123046875, 0.8026123046875, 0.8026123046875, 0.78704833984375, 0.78704833984375]",0.34728460195265576,0.8744385824260981,accepted,2.049942000070587,1.3823859000112861
pgACC-TUS-staircase,,1,2024-02-13_11h43.05.255,None,02,,,-0.0665283203125,2.4460274832589284,2.5502522786458335,2.0050048828125,2.277628580729167,2.344156901041667,40,19,27,0,434,7,8,0,"[]",0.38716548980388354,1.9830545043198669,rejected,2.384783999994397,0
pgACC-TUS-staircase,,1,2024-02-13_11h43.05.255,None,02,,,-0.0665283203125,2.4460274832589284,2.5502522786458335,2.0050048828125,2.277628580729167,2.344156901041667,41,27,10,0,434,8,5,0,"[]",0.42680409529435037,2.221408652551453,rejected,2.0021748999133706,0
