expName,curec_ID,session_nr,date,end_date,participant,age,gender,gripper_baseline,max_effort_calibration_1,max_effort_calibration_2,max_effort_calibration_3,max_effort,max_effort_baseline_corrected,trial_count,reward_offer,next_reward_offer,reward_earned,total_reward,effort_offer,next_effort_offer,effort_expended,effort_trace,estimated_k,estimated_net_value,participant_response,participant_choice_response_time,participant_effort_response_time
pgACC-TUS-staircase,,1,2024-02-13_13h15.58.173,None,04,,,-0.0494384765625,4.802638462611607,5.071207682291667,5.040283203125,5.055745442708334,5.105183919270834,0,18,None,0,0,6,None,None,"[1.08917236328125, 1.52923583984375, 2.42523193359375, 2.728271484375, 3.0474853515625, 3.47442626953125, 3.61846923828125, 3.76678466796875, 3.8897705078125, 3.65936279296875, 3.64410400390625, 3.76495361328125, 3.8665771484375, 3.9239501953125, 4.04388427734375, 4.16595458984375, 4.2889404296875, 4.3951416015625, 4.595947265625, 4.63409423828125, 4.7430419921875, 4.78271484375, 4.827880859375, 4.80438232421875, 4.873046875, 4.89532470703125, 4.833984375, 4.7021484375, 4.68170166015625, 4.674072265625, 4.7369384765625, 4.75372314453125, 4.70458984375, 4.6307373046875, 4.5941162109375, 4.60296630859375, 4.53643798828125, 4.537353515625, 4.60784912109375, 4.6063232421875, 4.66217041015625, 4.67041015625, 4.735107421875, 4.71923828125, 4.68475341796875, 4.70672607421875, 4.68963623046875, 4.66278076171875, 2.45361328125, 3.5211181640625, 4.11895751953125, 4.40155029296875, 4.4195556640625, 4.63623046875, 4.75006103515625, 4.84130859375, 4.9798583984375, 5.02532958984375, 5.069580078125, 5.01922607421875, 4.9871826171875, 5.09857177734375, 5.1025390625, 5.10162353515625, 5.10284423828125, 5.08758544921875, 5.0201416015625, 5.05035400390625, 5.12603759765625, 5.0372314453125, 4.96429443359375, 4.84283447265625, 4.794921875, 4.79644775390625, 4.70458984375, 2.6788330078125, 3.7139892578125, 4.13360595703125, 4.24407958984375, 4.28375244140625, 4.50408935546875, 4.4866943359375, 4.56756591796875, 4.64019775390625, 4.75677490234375, 4.74609375, 4.82757568359375, 4.84344482421875, 4.853515625, 4.86053466796875, 4.8712158203125, 4.8626708984375, 4.89593505859375, 4.85870361328125, 4.832763671875, 4.82177734375, 4.81903076171875, 4.8907470703125, 5.06439208984375, 5.10009765625, 5.08819580078125, 5.0579833984375, 5.02288818359375, 4.990234375, 5.04608154296875, 5.0225830078125, 5.0140380859375, 4.99359130859375, 4.957275390625, 4.830322265625, 4.8492431640625]",0.5,0.0,None,None,None
pgACC-TUS-staircase,,1,2024-02-13_13h15.58.173,None,04,,,-0.0494384765625,4.802638462611607,5.071207682291667,5.040283203125,5.055745442708334,5.105183919270834,1,18,7,18,18,6,4,8.08430583501006,"[0.02899169921875, 0.0286865234375, 0.0286865234375, 0.029296875, 0.0286865234375, 0.0286865234375, 0.02899169921875, 0.02777099609375, 0.02777099609375, 0.02838134765625, 0.028076171875, 0.02716064453125, 0.02716064453125, 0.02685546875, 0.02716064453125, 0.02716064453125, 0.02716064453125, 0.02685546875, 0.02777099609375, 0.0274658203125, 0.0274658203125, 0.02685546875, 0.02655029296875, 0.0262451171875, 0.0262451171875, 0.0262451171875, 0.025634765625, 0.02532958984375, 0.02532958984375, 0.02532958984375, 0.0250244140625, 0.02655029296875, 0.02655029296875, 0.02593994140625, 0.025634765625, 0.0250244140625, 0.02532958984375, 0.02532958984375, 0.02532958984375, 0.02410888671875, 0.02410888671875, 0.02410888671875, 0.02471923828125, 0.02471923828125, 0.0244140625, 0.0244140625, 0.0244140625, 0.02655029296875, 0.03204345703125, 0.0555419921875, 0.0555419921875, 0.0836181640625, 0.14892578125, 0.29937744140625, 0.29937744140625, 0.5230712890625, 0.80413818359375, 1.20025634765625, 1.20025634765625, 1.51641845703125, 1.7999267578125, 2.10357666015625, 2.32666015625, 2.32666015625, 2.48809814453125, 2.66754150390625, 2.79510498046875, 2.94586181640625, 2.94586181640625, 3.01849365234375, 3.0908203125, 3.0908203125, 3.13751220703125, 3.13751220703125, 3.24432373046875, 3.24432373046875, 3.24432373046875, 3.24432373046875, 3.28338623046875, 3.28338623046875, 3.27880859375, 3.27880859375, 3.28582763671875, 3.28582763671875, 3.28582763671875, 3.28582763671875, 3.33709716796875, 3.33709716796875, 3.36822509765625, 3.36822509765625, 3.29833984375, 3.29833984375, 3.299560546875, 3.299560546875, 3.299560546875, 3.299560546875, 3.3697509765625, 3.3697509765625, 3.4271240234375, 3.4271240234375, 3.3892822265625, 3.3892822265625, 3.3892822265625, 3.3892822265625, 3.4075927734375, 3.4075927734375, 3.49945068359375, 3.49945068359375, 3.521728515625, 3.521728515625, 3.521728515625, 3.521728515625, 3.4759521484375, 3.4759521484375, 3.47198486328125, 3.47198486328125, 3.533935546875, 3.533935546875, 3.60260009765625, 3.60260009765625, 3.60260009765625, 3.60260009765625, 3.6248779296875, 3.6248779296875, 3.6737060546875, 3.6737060546875, 3.7481689453125, 3.7481689453125, 3.7481689453125, 3.7481689453125, 3.77044677734375, 3.77044677734375, 3.8201904296875, 3.8201904296875, 3.89801025390625, 3.89801025390625, 3.9520263671875, 3.9520263671875, 3.9520263671875, 3.9520263671875, 4.04052734375, 4.04052734375, 4.05914306640625, 4.05914306640625, 4.04541015625, 4.04541015625, 4.04541015625, 4.04541015625, 4.07379150390625, 4.07379150390625, 4.091796875, 4.091796875, 4.05609130859375, 4.05609130859375, 4.05609130859375, 4.05609130859375, 3.93768310546875, 3.93768310546875, 3.92364501953125, 3.92364501953125, 3.95843505859375, 3.95843505859375, 4.01824951171875, 4.01824951171875, 4.01824951171875, 4.01824951171875, 4.0216064453125, 4.0216064453125, 3.94805908203125, 3.94805908203125, 3.9483642578125, 3.9483642578125, 3.9483642578125, 3.9483642578125, 3.9532470703125, 3.9532470703125, 3.9691162109375, 3.9691162109375, 3.98529052734375, 3.98529052734375, 4.00299072265625, 4.00299072265625, 4.00299072265625, 4.00299072265625, 4.00054931640625, 4.00054931640625, 4.03717041015625, 4.03717041015625, 4.0838623046875, 4.0838623046875, 4.0838623046875, 4.0838623046875, 4.08721923828125, 4.08721923828125]",0.5,0.0,accepted,4.260181700112298,2.1675803000107408
pgACC-TUS-staircase,,1,2024-02-13_13h15.58.173,None,04,,,-0.0494384765625,4.802638462611607,5.071207682291667,5.040283203125,5.055745442708334,5.105183919270834,2,7,14,7,25,4,6,7.1631790744466795,"[-0.001220703125, -0.00091552734375, -0.001220703125, -0.001220703125, -0.0006103515625, -0.00091552734375, -0.00091552734375, -0.00091552734375, -0.00030517578125, -0.00091552734375, -0.00091552734375, -0.001220703125, -0.00091552734375, -0.00152587890625, -0.00152587890625, -0.00091552734375, -0.00030517578125, -0.00152587890625, -0.00152587890625, -0.00091552734375, -0.00091552734375, -0.0006103515625, -0.0006103515625, -0.00091552734375, -0.0006103515625, 0.0, 0.00091552734375, 0.00091552734375, 0.00152587890625, 0.00274658203125, 0.00457763671875, 0.00457763671875, 0.0079345703125, 0.0177001953125, 0.03448486328125, 0.03448486328125, 0.06591796875, 0.1617431640625, 0.27984619140625, 0.48736572265625, 0.48736572265625, 0.7330322265625, 0.95458984375, 1.1590576171875, 1.30218505859375, 1.30218505859375, 1.48101806640625, 1.68792724609375, 1.942138671875, 1.942138671875, 2.12615966796875, 2.12615966796875, 2.373046875, 2.373046875, 2.48138427734375, 2.48138427734375, 2.618408203125, 2.618408203125, 2.618408203125, 2.618408203125, 2.698974609375, 2.698974609375, 2.83966064453125, 2.83966064453125, 2.95013427734375, 2.95013427734375, 3.0169677734375, 3.0169677734375, 3.0169677734375, 3.0169677734375, 3.11004638671875, 3.11004638671875, 3.19732666015625, 3.19732666015625, 3.2330322265625, 3.2330322265625, 3.2330322265625, 3.2330322265625, 3.30169677734375, 3.30169677734375, 3.35296630859375, 3.35296630859375, 3.35479736328125, 3.35479736328125, 3.44024658203125, 3.44024658203125, 3.5101318359375, 3.5101318359375, 3.5101318359375, 3.5101318359375, 3.51654052734375, 3.51654052734375, 3.5052490234375, 3.5052490234375, 3.5443115234375, 3.5443115234375, 3.5443115234375, 3.5443115234375, 3.6212158203125, 3.6212158203125, 3.67828369140625, 3.67828369140625, 3.67950439453125, 3.67950439453125, 3.67950439453125, 3.67950439453125, 3.660888671875, 3.660888671875, 3.75640869140625, 3.75640869140625, 3.8092041015625, 3.8092041015625, 3.8336181640625, 3.8336181640625, 3.8336181640625, 3.8336181640625, 3.86016845703125, 3.86016845703125, 3.89495849609375, 3.89495849609375, 3.876953125, 3.876953125, 3.89068603515625, 3.89068603515625, 3.89068603515625, 3.89068603515625, 3.8763427734375, 3.8763427734375, 3.8275146484375, 3.8275146484375, 3.73504638671875, 3.73504638671875, 3.70941162109375, 3.70941162109375, 3.70941162109375, 3.70941162109375, 3.68988037109375, 3.68988037109375, 3.6431884765625, 3.6431884765625, 3.5699462890625, 3.5699462890625, 3.5595703125, 3.5595703125, 3.53271484375, 3.53271484375, 3.53271484375, 3.53271484375, 3.482666015625, 3.482666015625, 3.499755859375, 3.499755859375, 3.5357666015625, 3.5357666015625, 3.5357666015625, 3.5357666015625, 3.5589599609375, 3.5589599609375, 3.5400390625, 3.5400390625, 3.5382080078125, 3.5382080078125, 3.5382080078125, 3.5382080078125, 3.6065673828125, 3.6065673828125, 3.62060546875, 3.62060546875, 3.5955810546875, 3.5955810546875, 3.62152099609375, 3.62152099609375, 3.62152099609375, 3.62152099609375]",0.4067997598160582,-1.0,accepted,1.6013617999851704,1.831385700032115
pgACC-TUS-staircase,,1,2024-02-13_13h15.58.173,None,04,,,-0.0494384765625,4.802638462611607,5.071207682291667,5.040283203125,5.055745442708334,5.105183919270834,3,14,26,14,39,6,9,6.458752515090542,"[0.0030517578125, 0.00518798828125, 0.00518798828125, 0.00762939453125, 0.00946044921875, 0.00946044921875, 0.01251220703125, 0.01495361328125, 0.01495361328125, 0.01739501953125, 0.0225830078125, 0.02960205078125, 0.03265380859375, 0.03265380859375, 0.0335693359375, 0.0341796875, 0.0341796875, 0.03631591796875, 0.042724609375, 0.04669189453125, 0.04669189453125, 0.05340576171875, 0.0579833984375, 0.064697265625, 0.064697265625, 0.0726318359375, 0.076904296875, 0.08056640625, 0.09490966796875, 0.09490966796875, 0.13031005859375, 0.17578125, 0.2105712890625, 0.23834228515625, 0.23834228515625, 0.25726318359375, 0.29083251953125, 0.322265625, 0.322265625, 0.36773681640625, 0.42266845703125, 0.48919677734375, 0.54443359375, 0.54443359375, 0.5975341796875, 0.65887451171875, 0.71685791015625, 0.79437255859375, 0.79437255859375, 0.87493896484375, 0.91949462890625, 1.03607177734375, 1.03607177734375, 1.11480712890625, 1.19720458984375, 1.2774658203125, 1.346435546875, 1.346435546875, 1.43341064453125, 1.495361328125, 1.5728759765625, 1.6229248046875, 1.6229248046875, 1.70654296875, 1.7779541015625, 1.86309814453125, 1.86309814453125, 1.94732666015625, 2.01263427734375, 2.03033447265625, 2.03033447265625, 2.05322265625, 2.10968017578125, 2.17559814453125, 2.23419189453125, 2.23419189453125, 2.26043701171875, 2.2711181640625, 2.2711181640625, 2.320556640625, 2.40325927734375, 2.4658203125, 2.4658203125, 2.46856689453125, 2.51708984375, 2.65380859375, 2.67730712890625, 2.67730712890625, 2.67425537109375, 2.67364501953125, 2.701416015625, 2.701416015625, 2.7447509765625, 2.7423095703125, 2.7911376953125, 2.88177490234375, 2.88177490234375, 2.8936767578125, 2.8759765625, 2.87933349609375, 2.87933349609375, 2.928466796875, 3.0047607421875, 3.01971435546875, 3.04840087890625, 3.04840087890625, 3.04840087890625, 3.04840087890625, 3.07220458984375, 3.07220458984375, 3.08868408203125, 3.08868408203125, 3.09906005859375, 3.09906005859375, 3.09906005859375, 3.09906005859375, 3.0987548828125, 3.0987548828125, 3.114013671875, 3.114013671875, 3.179931640625, 3.179931640625, 3.179931640625, 3.179931640625, 3.199462890625, 3.199462890625, 3.23455810546875, 3.23455810546875, 3.26507568359375, 3.26507568359375, 3.27911376953125, 3.27911376953125, 3.27911376953125, 3.27911376953125, 3.23455810546875, 3.23455810546875, 3.14788818359375, 3.14788818359375, 3.153076171875, 3.153076171875, 3.153076171875, 3.153076171875, 3.12713623046875, 3.12713623046875, 3.1048583984375, 3.1048583984375, 3.1005859375, 3.1005859375, 3.10302734375, 3.10302734375, 3.10302734375, 3.10302734375, 3.109130859375, 3.109130859375, 3.1060791015625, 3.1060791015625, 3.10638427734375, 3.10638427734375, 3.10638427734375, 3.10638427734375, 3.10455322265625, 3.10455322265625, 3.10333251953125, 3.10333251953125, 3.10028076171875, 3.10028076171875, 3.1182861328125, 3.1182861328125, 3.1182861328125, 3.1182861328125, 3.14605712890625, 3.14605712890625, 3.125, 3.125, 3.1182861328125, 3.1182861328125, 3.1182861328125, 3.1182861328125, 3.1292724609375, 3.1292724609375, 3.15460205078125, 3.15460205078125, 3.13995361328125, 3.13995361328125, 3.135986328125, 3.135986328125, 3.135986328125, 3.135986328125, 3.1573486328125, 3.1573486328125, 3.2073974609375, 3.2073974609375, 3.2080078125, 3.2080078125, 3.18756103515625, 3.18756103515625, 3.18756103515625, 3.18756103515625, 3.2098388671875, 3.2098388671875, 3.2568359375, 3.2568359375, 3.26019287109375, 3.26019287109375, 3.26019287109375, 3.26019287109375, 3.26385498046875, 3.26385498046875, 3.25714111328125, 3.25714111328125, 3.27301025390625, 3.27301025390625, 3.27301025390625, 3.27301025390625, 3.2635498046875, 3.2635498046875, 3.258056640625, 3.258056640625, 3.27606201171875, 3.27606201171875, 3.2757568359375, 3.2757568359375, 3.2757568359375, 3.2757568359375, 3.265380859375, 3.265380859375]",0.3230831658333711,-0.6447913533780962,accepted,3.41877009999007,2.7233410000335425
pgACC-TUS-staircase,,1,2024-02-13_13h15.58.173,None,04,,,-0.0494384765625,4.802638462611607,5.071207682291667,5.040283203125,5.055745442708334,5.105183919270834,4,26,10,26,65,9,6,9.511871227364184,"[3.55682373046875, 3.55682373046875, 3.62274169921875, 3.63677978515625, 3.63677978515625, 3.66943359375, 3.743896484375, 3.743896484375, 3.753662109375, 3.8427734375, 3.89892578125, 3.89892578125, 3.8531494140625, 3.7420654296875, 3.78875732421875, 3.78875732421875, 3.85101318359375, 3.84765625, 3.8311767578125, 3.8311767578125, 3.86505126953125, 3.86962890625, 3.86932373046875, 3.86932373046875, 3.89892578125, 3.95172119140625, 4.05914306640625, 4.0521240234375, 4.0521240234375, 4.08050537109375, 4.1583251953125, 4.200439453125, 4.200439453125, 4.2095947265625, 4.256591796875, 4.24285888671875, 4.237060546875, 4.237060546875, 4.2767333984375, 4.38323974609375, 4.47235107421875, 4.47235107421875, 4.490966796875, 4.52239990234375, 4.5635986328125, 4.5635986328125, 4.613037109375, 4.613037109375, 4.613037109375, 4.613037109375, 4.68017578125, 4.68017578125, 4.659423828125, 4.659423828125, 4.64385986328125, 4.64385986328125, 4.64385986328125, 4.64385986328125, 4.67376708984375, 4.67376708984375, 4.730224609375, 4.730224609375, 4.75860595703125, 4.75860595703125, 4.75860595703125, 4.75860595703125, 4.7869873046875, 4.7869873046875, 4.83123779296875, 4.83123779296875, 4.88128662109375, 4.88128662109375, 4.88128662109375, 4.88128662109375, 4.8748779296875, 4.8748779296875, 4.9273681640625, 4.9273681640625, 4.97650146484375, 4.97650146484375, 4.97650146484375, 4.97650146484375, 5.0286865234375, 5.0286865234375, 5.03814697265625, 5.03814697265625, 5.04486083984375, 5.04486083984375, 5.04486083984375, 5.04486083984375, 5.04180908203125, 5.04180908203125, 5.02838134765625, 5.02838134765625, 5.01434326171875, 5.01434326171875, 4.9755859375, 4.9755859375, 4.9755859375, 4.9755859375, 4.95269775390625, 4.95269775390625, 4.89654541015625, 4.89654541015625, 4.91668701171875, 4.91668701171875, 4.91668701171875, 4.91668701171875, 4.94781494140625, 4.94781494140625, 4.88616943359375, 4.88616943359375, 4.88067626953125, 4.88067626953125, 4.921875, 4.921875, 4.921875, 4.921875, 4.93011474609375, 4.93011474609375, 4.8748779296875, 4.8748779296875, 4.84405517578125, 4.84405517578125, 4.8443603515625, 4.8443603515625, 4.8443603515625, 4.8443603515625, 4.83123779296875, 4.83123779296875, 4.81719970703125, 4.81719970703125, 4.81719970703125, 4.81719970703125, 4.79644775390625, 4.79644775390625, 4.794921875, 4.794921875, 4.8028564453125, 4.8028564453125, 4.8028564453125, 4.8028564453125, 4.7998046875, 4.7998046875, 4.7845458984375, 4.7845458984375, 4.78302001953125, 4.78302001953125, 4.78302001953125, 4.78302001953125, 4.79583740234375, 4.79583740234375, 4.798583984375, 4.798583984375, 4.7821044921875, 4.7821044921875, 4.7821044921875, 4.7821044921875, 4.76104736328125, 4.76104736328125, 4.78179931640625, 4.78179931640625, 4.80438232421875, 4.80438232421875, 4.80438232421875, 4.80438232421875, 4.8089599609375, 4.8089599609375]",0.2459984144779085,-0.1697364325030577,accepted,3.839862300083041,1.7380031999200583
pgACC-TUS-staircase,,1,2024-02-13_13h15.58.173,None,04,,,-0.0494384765625,4.802638462611607,5.071207682291667,5.040283203125,5.055745442708334,5.105183919270834,5,10,30,10,75,6,10,6.149094567404426,"[0.04425048828125, 0.04425048828125, 0.0439453125, 0.0439453125, 0.04119873046875, 0.03570556640625, 0.0347900390625, 0.0347900390625, 0.03265380859375, 0.03143310546875, 0.03082275390625, 0.03082275390625, 0.0299072265625, 0.0299072265625, 0.0299072265625, 0.03082275390625, 0.029296875, 0.03021240234375, 0.03021240234375, 0.0299072265625, 0.030517578125, 0.03082275390625, 0.03082275390625, 0.03082275390625, 0.03082275390625, 0.0323486328125, 0.03692626953125, 0.03692626953125, 0.04730224609375, 0.0628662109375, 0.08026123046875, 0.1263427734375, 0.1263427734375, 0.20263671875, 0.24993896484375, 0.34271240234375, 0.34271240234375, 0.48095703125, 0.59967041015625, 0.8154296875, 0.8154296875, 0.947265625, 1.1541748046875, 1.2847900390625, 1.2847900390625, 1.42913818359375, 1.5655517578125, 1.6571044921875, 1.78680419921875, 1.78680419921875, 1.84844970703125, 1.9903564453125, 2.05657958984375, 2.05657958984375, 2.15972900390625, 2.2174072265625, 2.23602294921875, 2.23602294921875, 2.30804443359375, 2.4163818359375, 2.41180419921875, 2.4285888671875, 2.4285888671875, 2.4432373046875, 2.48443603515625, 2.5421142578125, 2.5421142578125, 2.6336669921875, 2.6800537109375, 2.734375, 2.7783203125, 2.7783203125, 2.80029296875, 2.84637451171875, 2.89794921875, 2.89794921875, 2.933349609375, 2.991943359375, 3.076171875, 3.076171875, 3.1134033203125, 3.1134033203125, 3.1134033203125, 3.1134033203125, 3.145751953125, 3.145751953125, 3.1884765625, 3.1884765625, 3.22906494140625, 3.22906494140625, 3.22906494140625, 3.22906494140625, 3.216552734375, 3.216552734375, 3.20556640625, 3.20556640625, 3.2000732421875, 3.2000732421875, 3.2000732421875, 3.2000732421875, 3.2171630859375, 3.2171630859375, 3.22235107421875, 3.22235107421875, 3.199462890625, 3.199462890625, 3.18817138671875, 3.18817138671875, 3.18817138671875, 3.18817138671875, 3.20831298828125, 3.20831298828125, 3.19000244140625, 3.19000244140625, 3.12652587890625, 3.12652587890625, 3.12652587890625, 3.12652587890625, 3.1103515625, 3.1103515625, 3.1103515625, 3.1103515625, 3.10516357421875, 3.10516357421875, 3.084716796875, 3.084716796875, 3.084716796875, 3.084716796875, 3.08563232421875, 3.08563232421875, 3.1134033203125, 3.1134033203125, 3.1365966796875, 3.1365966796875, 3.1365966796875, 3.1365966796875, 3.1378173828125, 3.1378173828125, 3.13568115234375, 3.13568115234375, 3.20526123046875, 3.20526123046875, 3.23394775390625, 3.23394775390625, 3.23394775390625, 3.23394775390625, 3.19793701171875, 3.19793701171875, 3.20953369140625, 3.20953369140625, 3.2379150390625, 3.2379150390625, 3.2379150390625, 3.2379150390625, 3.2440185546875, 3.2440185546875, 3.24310302734375, 3.24310302734375, 3.24615478515625, 3.24615478515625, 3.24615478515625, 3.24615478515625, 3.27117919921875, 3.27117919921875, 3.2470703125, 3.2470703125, 3.23516845703125, 3.23516845703125, 3.23516845703125, 3.23516845703125, 3.2427978515625, 3.2427978515625, 3.228759765625, 3.228759765625, 3.15155029296875, 3.15155029296875, 3.15582275390625, 3.15582275390625, 3.15582275390625, 3.15582275390625, 3.20037841796875, 3.20037841796875, 3.19549560546875, 3.19549560546875, 3.1463623046875, 3.1463623046875, 3.1463623046875, 3.1463623046875, 3.128662109375, 3.128662109375, 3.12591552734375, 3.12591552734375, 3.1256103515625, 3.1256103515625, 3.1256103515625, 3.1256103515625, 3.12225341796875, 3.12225341796875, 3.10577392578125, 3.10577392578125, 3.10882568359375, 3.10882568359375]",0.2459984144779085,1.144057078795294,accepted,1.928022300126031,2.310670700157061
pgACC-TUS-staircase,,1,2024-02-13_13h15.58.173,None,04,,,-0.0494384765625,4.802638462611607,5.071207682291667,5.040283203125,5.055745442708334,5.105183919270834,6,30,26,0,75,10,9,0,"[]",0.3142663564749213,5.400158552209152,rejected,3.7824289998970926,0
pgACC-TUS-staircase,,1,2024-02-13_13h15.58.173,None,04,,,-0.0494384765625,4.802638462611607,5.071207682291667,5.040283203125,5.055745442708334,5.105183919270834,7,26,6,26,101,9,4,9.32957746478873,"[0.04180908203125, 0.04180908203125, 0.04119873046875, 0.04058837890625, 0.04058837890625, 0.04058837890625, 0.04119873046875, 0.0408935546875, 0.04058837890625, 0.03997802734375, 0.03997802734375, 0.03997802734375, 0.04058837890625, 0.04119873046875, 0.0408935546875, 0.0408935546875, 0.0408935546875, 0.0408935546875, 0.0408935546875, 0.0408935546875, 0.0408935546875, 0.03936767578125, 0.0396728515625, 0.03997802734375, 0.03997802734375, 0.03997802734375, 0.04058837890625, 0.05767822265625, 0.05767822265625, 0.08270263671875, 0.14862060546875, 0.3106689453125, 0.52215576171875, 0.52215576171875, 0.7843017578125, 1.10076904296875, 1.419677734375, 1.419677734375, 1.66168212890625, 1.9451904296875, 2.23846435546875, 2.44720458984375, 2.44720458984375, 2.65899658203125, 2.8277587890625, 2.991943359375, 2.991943359375, 3.20892333984375, 3.35906982421875, 3.5235595703125, 3.660888671875, 3.660888671875, 3.7127685546875, 3.74267578125, 3.8421630859375, 3.91815185546875, 3.91815185546875, 4.0118408203125, 3.966064453125, 4.06097412109375, 4.06097412109375, 4.090576171875, 4.093017578125, 4.09576416015625, 4.1046142578125, 4.1046142578125, 4.15130615234375, 4.17755126953125, 4.2095947265625, 4.2095947265625, 4.24163818359375, 4.26177978515625, 4.36126708984375, 4.36126708984375, 4.381103515625, 4.37530517578125, 4.40093994140625, 4.5001220703125, 4.5001220703125, 4.54833984375, 4.58587646484375, 4.58587646484375, 4.59136962890625, 4.59136962890625, 4.5892333984375, 4.5892333984375, 4.5892333984375, 4.5892333984375, 4.59808349609375, 4.59808349609375, 4.600830078125, 4.600830078125, 4.6240234375, 4.6240234375, 4.63836669921875, 4.63836669921875, 4.63836669921875, 4.63836669921875, 4.69268798828125, 4.69268798828125, 4.67376708984375, 4.67376708984375, 4.60113525390625, 4.60113525390625, 4.60113525390625, 4.60113525390625, 4.59320068359375, 4.59320068359375, 4.60723876953125, 4.60723876953125, 4.5782470703125, 4.5782470703125, 4.5782470703125, 4.5782470703125, 4.5263671875, 4.517822265625, 4.51568603515625, 4.53460693359375, 4.53460693359375, 4.50775146484375, 4.48944091796875, 4.49493408203125, 4.49493408203125, 4.50592041015625, 4.4970703125, 4.51690673828125, 4.53155517578125, 4.53155517578125, 4.52056884765625, 4.537353515625, 4.54742431640625, 4.54742431640625, 4.55078125, 4.55078125, 4.5526123046875, 4.5526123046875, 4.52423095703125, 4.55841064453125, 4.55841064453125, 4.55841064453125, 4.55841064453125, 4.610595703125, 4.610595703125, 4.609375, 4.609375, 4.578857421875, 4.578857421875, 4.6038818359375, 4.6038818359375, 4.6038818359375, 4.6038818359375, 4.67742919921875, 4.67742919921875, 4.6954345703125, 4.6954345703125, 4.65087890625, 4.65087890625, 4.65087890625, 4.65087890625, 4.66766357421875, 4.66766357421875, 4.7186279296875, 4.7186279296875, 4.7576904296875, 4.7576904296875, 4.7576904296875, 4.7576904296875, 4.76776123046875, 4.76776123046875, 4.75982666015625, 4.75982666015625, 4.8077392578125, 4.8077392578125, 4.8516845703125, 4.8516845703125, 4.8516845703125, 4.8516845703125, 4.871826171875, 4.871826171875, 4.8382568359375, 4.8382568359375, 4.833984375, 4.833984375, 4.87091064453125, 4.87091064453125, 4.87091064453125, 4.87091064453125, 4.85809326171875, 4.85809326171875, 4.80377197265625, 4.80377197265625, 4.79827880859375, 4.79827880859375, 4.79827880859375, 4.79827880859375, 4.8089599609375, 4.8089599609375, 4.8028564453125, 4.8028564453125, 4.78515625, 4.78515625, 4.759521484375, 4.759521484375, 4.759521484375, 4.759521484375, 4.76409912109375, 4.76409912109375, 4.76715087890625, 4.76715087890625, 4.78179931640625, 4.78179931640625, 4.77325439453125, 4.77325439453125, 4.77325439453125, 4.77325439453125, 4.74151611328125, 4.74151611328125, 4.73968505859375, 4.73968505859375, 4.739990234375, 4.739990234375, 4.7442626953125, 4.7442626953125, 4.7442626953125, 4.7442626953125, 4.718017578125, 4.718017578125, 4.6923828125, 4.6923828125, 4.6649169921875, 4.6649169921875, 4.6826171875, 4.6826171875, 4.6826171875, 4.6826171875, 4.6917724609375, 4.6917724609375, 4.68994140625, 4.68994140625, 4.70703125, 4.70703125, 4.70703125, 4.70703125, 4.70947265625, 4.70947265625, 4.7003173828125, 4.7003173828125, 4.691162109375, 4.691162109375, 4.70611572265625, 4.70611572265625, 4.70611572265625, 4.70611572265625, 4.7332763671875, 4.7332763671875, 4.7271728515625, 4.7271728515625, 4.716796875, 4.716796875, 4.716796875, 4.716796875]",0.3142663564749213,0.5444251255313759,accepted,1.9726822001393884,2.9778107998427004
pgACC-TUS-staircase,,1,2024-02-13_13h15.58.173,None,04,,,-0.0494384765625,4.802638462611607,5.071207682291667,5.040283203125,5.055745442708334,5.105183919270834,8,6,26,6,107,4,9,4.976257545271629,"[0.00946044921875, 0.00946044921875, 0.00946044921875, 0.00946044921875, 0.00946044921875, 0.0091552734375, 0.0091552734375, 0.0091552734375, 0.00946044921875, 0.00946044921875, 0.008544921875, 0.008544921875, 0.00946044921875, 0.00885009765625, 0.00885009765625, 0.00885009765625, 0.0091552734375, 0.01068115234375, 0.01190185546875, 0.01190185546875, 0.01220703125, 0.01312255859375, 0.01556396484375, 0.01556396484375, 0.01800537109375, 0.028076171875, 0.040283203125, 0.040283203125, 0.06500244140625, 0.09429931640625, 0.14312744140625, 0.22247314453125, 0.22247314453125, 0.3106689453125, 0.44677734375, 0.5718994140625, 0.5718994140625, 0.77239990234375, 0.94635009765625, 1.15509033203125, 1.15509033203125, 1.3006591796875, 1.52801513671875, 1.65496826171875, 1.82220458984375, 1.82220458984375, 2.0196533203125, 2.07672119140625, 2.07672119140625, 2.18475341796875, 2.18475341796875, 2.18475341796875, 2.18475341796875, 2.274169921875, 2.274169921875, 2.3419189453125, 2.3419189453125, 2.3858642578125, 2.3858642578125, 2.3974609375, 2.3974609375, 2.3974609375, 2.3974609375, 2.41668701171875, 2.41668701171875, 2.43682861328125, 2.43682861328125, 2.4346923828125, 2.4346923828125, 2.4365234375, 2.4365234375, 2.4365234375, 2.4365234375, 2.4432373046875, 2.4432373046875, 2.45025634765625, 2.45025634765625, 2.42401123046875, 2.42401123046875, 2.42401123046875, 2.42401123046875, 2.39776611328125, 2.39776611328125, 2.42431640625, 2.42431640625, 2.4456787109375, 2.4456787109375, 2.4456787109375, 2.4456787109375, 2.445068359375, 2.445068359375, 2.45697021484375, 2.45697021484375, 2.5177001953125, 2.5177001953125, 2.54730224609375, 2.54730224609375, 2.54730224609375, 2.54730224609375, 2.5341796875, 2.5341796875, 2.53936767578125, 2.53936767578125, 2.53082275390625, 2.53082275390625, 2.53082275390625, 2.53082275390625, 2.49267578125, 2.49267578125, 2.4798583984375, 2.4798583984375, 2.4639892578125, 2.4639892578125, 2.4810791015625, 2.4810791015625, 2.4810791015625, 2.4810791015625, 2.48046875, 2.48046875, 2.4615478515625, 2.4615478515625, 2.447509765625, 2.447509765625, 2.447509765625, 2.447509765625, 2.44720458984375, 2.44720458984375, 2.4530029296875, 2.4530029296875, 2.479248046875, 2.479248046875, 2.501220703125, 2.501220703125, 2.501220703125, 2.501220703125, 2.50030517578125, 2.50030517578125, 2.501220703125, 2.501220703125, 2.5677490234375, 2.5677490234375, 2.613525390625, 2.613525390625, 2.613525390625, 2.613525390625, 2.60467529296875, 2.60467529296875, 2.50885009765625, 2.50885009765625, 2.4957275390625, 2.4957275390625, 2.5091552734375, 2.5091552734375, 2.5091552734375, 2.5091552734375, 2.53997802734375, 2.53997802734375, 2.50091552734375, 2.50091552734375, 2.49237060546875, 2.49237060546875, 2.49237060546875, 2.49237060546875, 2.4774169921875, 2.4774169921875, 2.469482421875, 2.469482421875, 2.48687744140625, 2.48687744140625, 2.515869140625, 2.515869140625]",0.3142663564749213,0.9717382964012593,accepted,2.383763700025156,1.780558600090444
pgACC-TUS-staircase,,1,2024-02-13_13h15.58.173,None,04,,,-0.0494384765625,4.802638462611607,5.071207682291667,5.040283203125,5.055745442708334,5.105183919270834,9,26,16,26,133,9,7,9.37665995975855,"[0.1123046875, 0.1116943359375, 0.1116943359375, 0.11077880859375, 0.10498046875, 0.1031494140625, 0.1031494140625, 0.10284423828125, 0.098876953125, 0.098876953125, 0.09552001953125, 0.08941650390625, 0.08514404296875, 0.08514404296875, 0.08453369140625, 0.084228515625, 0.084228515625, 0.0823974609375, 0.0823974609375, 0.08026123046875, 0.07781982421875, 0.078125, 0.078125, 0.08148193359375, 0.11962890625, 0.228271484375, 0.3643798828125, 0.3643798828125, 0.60546875, 1.05133056640625, 1.33270263671875, 1.33270263671875, 1.63909912109375, 1.9622802734375, 2.22320556640625, 2.442626953125, 2.442626953125, 2.672119140625, 2.8399658203125, 3.0120849609375, 3.0120849609375, 3.1500244140625, 3.2501220703125, 3.3428955078125, 3.3367919921875, 3.3367919921875, 3.39996337890625, 3.5638427734375, 3.6383056640625, 3.65447998046875, 3.65447998046875, 3.70819091796875, 3.83148193359375, 3.900146484375, 3.983154296875, 3.983154296875, 4.0234375, 4.06280517578125, 4.15283203125, 4.15283203125, 4.21417236328125, 4.212646484375, 4.2230224609375, 4.3121337890625, 4.3121337890625, 4.3084716796875, 4.2742919921875, 4.300537109375, 4.300537109375, 4.35455322265625, 4.39483642578125, 4.42962646484375, 4.41436767578125, 4.41436767578125, 4.40032958984375, 4.41741943359375, 4.43572998046875, 4.43572998046875, 4.4268798828125, 4.48944091796875, 4.49981689453125, 4.49981689453125, 4.44488525390625, 4.4873046875, 4.50286865234375, 4.530029296875, 4.530029296875, 4.59503173828125, 4.59503173828125, 4.598388671875, 4.598388671875, 4.60205078125, 4.60205078125, 4.61181640625, 4.61181640625, 4.61181640625, 4.61181640625, 4.60174560546875, 4.60174560546875, 4.59381103515625, 4.59381103515625, 4.6038818359375, 4.6038818359375, 4.61578369140625, 4.61578369140625, 4.61578369140625, 4.61578369140625, 4.61395263671875, 4.61395263671875, 4.62799072265625, 4.62799072265625, 4.62554931640625, 4.62554931640625, 4.62554931640625, 4.62554931640625, 4.6527099609375, 4.6527099609375, 4.630126953125, 4.630126953125, 4.613037109375, 4.613037109375, 4.613037109375, 4.613037109375, 4.583740234375, 4.583740234375, 4.55322265625, 4.55322265625, 4.54986572265625, 4.53033447265625, 4.53033447265625, 4.5318603515625, 4.552001953125, 4.552001953125, 4.55047607421875, 4.55047607421875, 4.55047607421875, 4.55047607421875, 4.517822265625, 4.51507568359375, 4.54986572265625, 4.5660400390625, 4.5660400390625, 4.5660400390625, 4.5660400390625, 4.52392578125, 4.5074462890625, 4.51568603515625, 4.52667236328125, 4.52667236328125, 4.54376220703125, 4.55169677734375, 4.55169677734375, 4.56512451171875, 4.56512451171875, 4.5477294921875, 4.5477294921875, 4.573974609375, 4.573974609375, 4.5965576171875, 4.5965576171875, 4.60723876953125, 4.60723876953125, 4.60723876953125, 4.60723876953125, 4.59869384765625, 4.59869384765625, 4.6087646484375, 4.6087646484375, 4.60418701171875, 4.60418701171875, 4.60418701171875, 4.60418701171875, 4.61761474609375, 4.61761474609375, 4.61761474609375, 4.61761474609375, 4.61761474609375, 4.61761474609375, 4.60357666015625, 4.60357666015625, 4.6026611328125, 4.6026611328125, 4.6026611328125, 4.6026611328125, 4.6185302734375, 4.6185302734375, 4.59747314453125, 4.59747314453125, 4.58465576171875, 4.58465576171875, 4.58465576171875, 4.58465576171875, 4.60296630859375, 4.60296630859375, 4.6044921875, 4.6044921875, 4.6026611328125, 4.6026611328125, 4.5880126953125, 4.5880126953125, 4.5880126953125, 4.5880126953125, 4.591064453125, 4.591064453125, 4.598388671875, 4.598388671875, 4.5880126953125, 4.5880126953125, 4.57244873046875, 4.57244873046875, 4.57244873046875, 4.57244873046875, 4.5770263671875, 4.5770263671875, 4.5440673828125, 4.5294189453125, 4.5294189453125, 4.53094482421875, 4.5166015625, 4.47296142578125, 4.47296142578125, 4.4854736328125, 4.49188232421875, 4.46502685546875, 4.481201171875, 4.481201171875, 4.490966796875, 4.46746826171875, 4.447021484375, 4.447021484375, 4.468994140625, 4.4696044921875, 4.4659423828125, 4.4659423828125, 4.45556640625, 4.4256591796875, 4.42901611328125, 4.45098876953125, 4.45098876953125, 4.44061279296875, 4.423828125, 4.4415283203125, 4.4415283203125, 4.44244384765625, 4.44061279296875, 4.42840576171875, 4.42840576171875, 4.4091796875, 4.3927001953125, 4.368896484375, 4.31976318359375, 4.31976318359375, 4.28558349609375, 4.25628662109375, 4.20501708984375, 4.15435791015625, 4.15435791015625, 4.1265869140625, 4.11102294921875, 4.10186767578125, 4.10186767578125, 4.0771484375, 4.04510498046875, 4.073486328125, 4.053955078125, 4.053955078125, 4.0380859375, 4.08905029296875, 4.10064697265625, 4.10064697265625, 4.09027099609375, 4.0631103515625, 4.0625, 4.0625, 4.08477783203125, 4.1015625, 4.15283203125, 4.15283203125, 4.1778564453125, 4.20928955078125, 4.24896240234375, 4.2730712890625, 4.2730712890625, 4.28253173828125, 4.34478759765625, 4.39300537109375, 4.39300537109375, 4.41986083984375, 4.4110107421875, 4.42108154296875, 4.39208984375, 4.39208984375, 4.3951416015625, 4.3927001953125, 4.40460205078125, 4.40460205078125, 4.453125, 4.5001220703125, 4.5111083984375, 4.5379638671875, 4.5379638671875, 4.57305908203125, 4.57305908203125, 4.608154296875, 4.608154296875, 4.60906982421875, 4.60906982421875, 4.60906982421875, 4.60906982421875, 4.6258544921875, 4.6258544921875, 4.65301513671875, 4.65301513671875, 4.6710205078125, 4.6710205078125, 4.6710205078125, 4.6710205078125, 4.69635009765625, 4.69635009765625, 4.700927734375, 4.700927734375, 4.7015380859375, 4.7015380859375, 4.7174072265625, 4.7174072265625, 4.7174072265625, 4.7174072265625, 4.735107421875, 4.735107421875, 4.73602294921875, 4.73602294921875, 4.74578857421875, 4.74578857421875, 4.74578857421875, 4.74578857421875, 4.75067138671875, 4.75067138671875, 4.75677490234375, 4.75677490234375, 4.7601318359375, 4.7601318359375, 4.7601318359375, 4.7601318359375, 4.75921630859375, 4.75921630859375, 4.75799560546875, 4.75799560546875, 4.7607421875, 4.7607421875, 4.7607421875, 4.7607421875, 4.769287109375, 4.769287109375, 4.7845458984375, 4.7845458984375, 4.77630615234375, 4.77630615234375, 4.77630615234375, 4.77630615234375, 4.7723388671875, 4.7723388671875, 4.7869873046875, 4.7869873046875, 4.788818359375, 4.788818359375, 4.788818359375, 4.788818359375, 4.7747802734375, 4.7747802734375, 4.793701171875, 4.793701171875, 4.80682373046875, 4.80682373046875, 4.808349609375, 4.808349609375, 4.808349609375, 4.808349609375, 4.801025390625, 4.801025390625, 4.81597900390625, 4.81597900390625, 4.80987548828125, 4.80987548828125, 4.798583984375, 4.798583984375, 4.798583984375, 4.798583984375, 4.79827880859375, 4.79827880859375, 4.81964111328125, 4.81964111328125, 4.8370361328125, 4.8370361328125, 4.8297119140625, 4.8297119140625, 4.8297119140625, 4.8297119140625, 4.79217529296875, 4.79217529296875, 4.79949951171875, 4.79949951171875, 4.79949951171875, 4.79949951171875, 4.8016357421875, 4.8016357421875, 4.79644775390625, 4.79644775390625, 4.801025390625, 4.801025390625, 4.79644775390625, 4.79644775390625, 4.79644775390625, 4.79644775390625, 4.7625732421875, 4.7625732421875, 4.754638671875, 4.754638671875, 4.76287841796875, 4.76287841796875, 4.7662353515625, 4.7662353515625, 4.7406005859375, 4.7406005859375]",0.3142663564749213,0.5444251255313759,accepted,1.8714205001015216,5.078258900204673
pgACC-TUS-staircase,,1,2024-02-13_13h15.58.173,None,04,,,-0.0494384765625,4.802638462611607,5.071207682291667,5.040283203125,5.055745442708334,5.105183919270834,10,16,30,16,149,7,10,7.378068410462776,"[0.01800537109375, 0.01861572265625, 0.01861572265625, 0.01861572265625, 0.018310546875, 0.01861572265625, 0.018310546875, 0.018310546875, 0.01739501953125, 0.01617431640625, 0.013427734375, 0.013427734375, 0.01190185546875, 0.010986328125, 0.0103759765625, 0.0103759765625, 0.008544921875, 0.00823974609375, 0.00762939453125, 0.0079345703125, 0.0079345703125, 0.00823974609375, 0.00823974609375, 0.008544921875, 0.009765625, 0.009765625, 0.01495361328125, 0.028076171875, 0.052490234375, 0.0958251953125, 0.0958251953125, 0.2264404296875, 0.32958984375, 0.51605224609375, 0.771484375, 0.771484375, 1.0125732421875, 1.2286376953125, 1.4483642578125, 1.4483642578125, 1.63787841796875, 1.86187744140625, 2.05657958984375, 2.23480224609375, 2.23480224609375, 2.3638916015625, 2.49053955078125, 2.66693115234375, 2.66693115234375, 2.8271484375, 2.94647216796875, 3.02947998046875, 3.0108642578125, 3.0108642578125, 3.0975341796875, 3.2159423828125, 3.260498046875, 3.292236328125, 3.292236328125, 3.35784912109375, 3.39691162109375, 3.3953857421875, 3.3953857421875, 3.4674072265625, 3.4881591796875, 3.44024658203125, 3.40728759765625, 3.40728759765625, 3.4344482421875, 3.49273681640625, 3.5064697265625, 3.5064697265625, 3.525390625, 3.57391357421875, 3.57391357421875, 3.585205078125, 3.585205078125, 3.5784912109375, 3.5784912109375, 3.5784912109375, 3.5784912109375, 3.62548828125, 3.62548828125, 3.67431640625, 3.67431640625, 3.6907958984375, 3.6907958984375, 3.6883544921875, 3.6883544921875, 3.6883544921875, 3.6883544921875, 3.7298583984375, 3.7298583984375, 3.81561279296875, 3.81561279296875, 3.81256103515625, 3.81256103515625, 3.81439208984375, 3.81439208984375, 3.81439208984375, 3.81439208984375, 3.83392333984375, 3.83392333984375, 3.84552001953125, 3.84552001953125, 3.83819580078125, 3.83819580078125, 3.83819580078125, 3.83819580078125, 3.86016845703125, 3.86016845703125, 3.86962890625, 3.86962890625, 3.85040283203125, 3.85040283203125, 3.7890625, 3.7890625, 3.7890625, 3.7890625, 3.758544921875, 3.758544921875, 3.76068115234375, 3.76068115234375, 3.7481689453125, 3.7481689453125, 3.71856689453125, 3.71856689453125, 3.71856689453125, 3.71856689453125, 3.72222900390625, 3.72222900390625, 3.7213134765625, 3.7213134765625, 3.72039794921875, 3.72039794921875, 3.71551513671875, 3.71551513671875, 3.71551513671875, 3.71551513671875, 3.709716796875, 3.709716796875, 3.71429443359375, 3.71429443359375, 3.70452880859375, 3.70452880859375, 3.70452880859375, 3.70452880859375, 3.6834716796875, 3.6834716796875, 3.6920166015625, 3.6920166015625, 3.7017822265625, 3.7017822265625, 3.7054443359375, 3.7054443359375, 3.69903564453125, 3.69903564453125, 3.69903564453125, 3.69903564453125, 3.6920166015625, 3.6920166015625, 3.71002197265625, 3.71002197265625, 3.72467041015625, 3.72467041015625, 3.72467041015625, 3.72467041015625, 3.6834716796875, 3.6834716796875, 3.7030029296875, 3.7030029296875, 3.71673583984375, 3.71673583984375, 3.7396240234375, 3.7396240234375, 3.7396240234375, 3.7396240234375, 3.78173828125, 3.78173828125, 3.83575439453125, 3.83575439453125, 3.818359375, 3.818359375, 3.818359375, 3.818359375, 3.74786376953125, 3.74786376953125, 3.748779296875, 3.748779296875, 3.759765625, 3.759765625, 3.73565673828125, 3.73565673828125, 3.73565673828125, 3.73565673828125, 3.73016357421875, 3.73016357421875]",0.3142663564749213,0.6009485327288573,accepted,1.2876802999526262,2.226330299861729
pgACC-TUS-staircase,,1,2024-02-13_13h15.58.173,None,04,,,-0.0494384765625,4.802638462611607,5.071207682291667,5.040283203125,5.055745442708334,5.105183919270834,11,30,4,0,149,10,4,0,"[]",0.3142663564749213,-1.4266356474921302,rejected,1.4303832999430597,0
pgACC-TUS-staircase,,1,2024-02-13_13h15.58.173,None,04,,,-0.0494384765625,4.802638462611607,5.071207682291667,5.040283203125,5.055745442708334,5.105183919270834,12,4,22,4,153,4,9,4.693762575452716,"[0.0439453125, 0.04638671875, 0.048828125, 0.0531005859375, 0.0531005859375, 0.05584716796875, 0.057373046875, 0.057373046875, 0.057373046875, 0.0592041015625, 0.0592041015625, 0.0592041015625, 0.06103515625, 0.06195068359375, 0.06561279296875, 0.06561279296875, 0.06744384765625, 0.068359375, 0.068359375, 0.0714111328125, 0.07781982421875, 0.0982666015625, 0.0982666015625, 0.1776123046875, 0.24658203125, 0.316162109375, 0.316162109375, 0.42022705078125, 0.5328369140625, 0.6884765625, 0.831298828125, 0.831298828125, 0.947265625, 1.11297607421875, 1.24298095703125, 1.24298095703125, 1.42425537109375, 1.5740966796875, 1.63726806640625, 1.7633056640625, 1.7633056640625, 1.84051513671875, 1.954345703125, 2.04803466796875, 2.04803466796875, 2.1575927734375, 2.1575927734375, 2.1575927734375, 2.1575927734375, 2.20947265625, 2.20947265625, 2.239990234375, 2.239990234375, 2.2698974609375, 2.2698974609375, 2.33917236328125, 2.33917236328125, 2.33917236328125, 2.33917236328125, 2.36541748046875, 2.36541748046875, 2.3834228515625, 2.3834228515625, 2.432861328125, 2.432861328125, 2.451171875, 2.451171875, 2.431640625, 2.431640625, 2.431640625, 2.431640625, 2.43316650390625, 2.43316650390625, 2.44476318359375, 2.44476318359375, 2.44476318359375, 2.44476318359375, 2.46795654296875, 2.46795654296875, 2.47222900390625, 2.47222900390625, 2.43560791015625, 2.43560791015625, 2.4176025390625, 2.4176025390625, 2.4176025390625, 2.4176025390625, 2.423095703125, 2.423095703125, 2.421875, 2.421875, 2.43743896484375, 2.43743896484375, 2.43743896484375, 2.43743896484375, 2.4713134765625, 2.4713134765625, 2.47528076171875, 2.47528076171875, 2.44842529296875, 2.44842529296875, 2.40692138671875, 2.40692138671875, 2.40692138671875, 2.40692138671875, 2.3724365234375, 2.3724365234375, 2.3565673828125, 2.3565673828125, 2.31719970703125, 2.31719970703125, 2.31719970703125, 2.31719970703125, 2.33062744140625, 2.33062744140625, 2.3504638671875, 2.3504638671875, 2.369384765625, 2.369384765625, 2.386474609375, 2.386474609375, 2.386474609375, 2.386474609375, 2.31414794921875, 2.31414794921875, 2.2698974609375, 2.2698974609375, 2.286376953125, 2.286376953125, 2.286376953125, 2.286376953125, 2.29034423828125, 2.29034423828125, 2.249755859375, 2.249755859375, 2.23785400390625, 2.23785400390625, 2.254638671875, 2.254638671875, 2.254638671875, 2.254638671875, 2.257080078125, 2.257080078125, 2.24151611328125, 2.24151611328125, 2.23419189453125, 2.23419189453125, 2.22625732421875, 2.22625732421875, 2.22625732421875, 2.22625732421875, 2.218017578125, 2.218017578125, 2.2271728515625, 2.2271728515625, 2.28424072265625, 2.28424072265625, 2.38677978515625, 2.38677978515625, 2.42889404296875, 2.42889404296875, 2.42889404296875, 2.42889404296875, 2.4090576171875, 2.4090576171875, 2.373046875, 2.373046875]",0.25887595051459306,-1.0282617035987407,accepted,2.391403199872002,1.7172588999383152
pgACC-TUS-staircase,,1,2024-02-13_13h15.58.173,None,04,,,-0.0494384765625,4.802638462611607,5.071207682291667,5.040283203125,5.055745442708334,5.105183919270834,13,22,25,22,175,9,10,9.099597585513077,"[0.1568603515625, 0.1495361328125, 0.1495361328125, 0.135498046875, 0.135498046875, 0.13214111328125, 0.133056640625, 0.13275146484375, 0.13275146484375, 0.1263427734375, 0.1220703125, 0.11993408203125, 0.1190185546875, 0.1190185546875, 0.11932373046875, 0.11688232421875, 0.11077880859375, 0.1031494140625, 0.1031494140625, 0.1043701171875, 0.10772705078125, 0.1153564453125, 0.1153564453125, 0.146484375, 0.2301025390625, 0.33447265625, 0.556640625, 0.556640625, 0.92437744140625, 1.3299560546875, 1.8389892578125, 2.259521484375, 2.259521484375, 2.67486572265625, 2.93731689453125, 3.125, 3.125, 3.3221435546875, 3.4954833984375, 3.604736328125, 3.597412109375, 3.597412109375, 3.71246337890625, 3.8922119140625, 3.90045166015625, 3.84063720703125, 3.84063720703125, 3.8739013671875, 3.98284912109375, 3.97186279296875, 4.04449462890625, 4.04449462890625, 4.102783203125, 4.19281005859375, 4.2303466796875, 4.2303466796875, 4.23553466796875, 4.2388916015625, 4.2486572265625, 4.337158203125, 4.337158203125, 4.35699462890625, 4.342041015625, 4.3865966796875, 4.3865966796875, 4.410400390625, 4.42840576171875, 4.46136474609375, 4.45404052734375, 4.45404052734375, 4.47265625, 4.512939453125, 4.55047607421875, 4.55047607421875, 4.57244873046875, 4.57244873046875, 4.57244873046875, 4.57244873046875, 4.5391845703125, 4.5428466796875, 4.54193115234375, 4.54193115234375, 4.54833984375, 4.54345703125, 4.5440673828125, 4.55169677734375, 4.55169677734375, 4.55169677734375, 4.55169677734375, 4.56390380859375, 4.56390380859375, 4.55047607421875, 4.55047607421875, 4.53948974609375, 4.53948974609375, 4.59136962890625, 4.59136962890625, 4.603271484375, 4.603271484375, 4.6075439453125, 4.6075439453125, 4.60693359375, 4.60693359375, 4.60693359375, 4.60693359375, 4.658203125, 4.658203125, 4.644775390625, 4.644775390625, 4.6453857421875, 4.6453857421875, 4.6453857421875, 4.6453857421875, 4.66033935546875, 4.66033935546875, 4.70123291015625, 4.70123291015625, 4.716796875, 4.716796875, 4.7320556640625, 4.7320556640625, 4.7320556640625, 4.7320556640625, 4.716796875, 4.716796875, 4.69024658203125, 4.69024658203125, 4.71923828125, 4.71923828125, 4.71923828125, 4.71923828125, 4.73388671875, 4.73388671875, 4.752197265625, 4.752197265625, 4.74334716796875, 4.74334716796875, 4.74334716796875, 4.74334716796875, 4.74456787109375, 4.74456787109375, 4.73602294921875, 4.73602294921875, 4.7222900390625, 4.7222900390625, 4.7222900390625, 4.7222900390625, 4.7149658203125, 4.7149658203125, 4.70245361328125, 4.70245361328125, 4.71160888671875, 4.71160888671875, 4.70062255859375, 4.70062255859375, 4.70062255859375, 4.70062255859375, 4.683837890625, 4.683837890625, 4.68017578125, 4.68017578125, 4.68017578125, 4.68017578125, 4.67926025390625, 4.67926025390625, 4.649658203125, 4.649658203125, 4.65667724609375, 4.65667724609375, 4.69482421875, 4.69482421875, 4.69482421875, 4.69482421875, 4.65667724609375, 4.65667724609375, 4.615478515625, 4.615478515625, 4.615478515625, 4.615478515625, 4.64263916015625, 4.64263916015625, 4.64508056640625, 4.64508056640625, 4.6209716796875, 4.6209716796875, 4.6209716796875, 4.6209716796875, 4.6136474609375, 4.6136474609375, 4.60784912109375, 4.60784912109375, 4.60418701171875, 4.60418701171875, 4.60418701171875, 4.60418701171875, 4.60174560546875, 4.60174560546875, 4.58251953125, 4.58251953125, 4.59716796875, 4.59716796875, 4.5928955078125, 4.5928955078125, 4.5928955078125, 4.5928955078125, 4.5758056640625, 4.5758056640625, 4.6038818359375, 4.6038818359375, 4.60174560546875, 4.60174560546875, 4.57733154296875, 4.57733154296875, 4.57733154296875, 4.57733154296875, 4.59136962890625, 4.59136962890625, 4.60052490234375, 4.60052490234375]",0.25887595051459306,1.0310480083179634,accepted,5.113427999895066,2.4774805000051856
pgACC-TUS-staircase,,1,2024-02-13_13h15.58.173,None,04,,,-0.0494384765625,4.802638462611607,5.071207682291667,5.040283203125,5.055745442708334,5.105183919270834,14,25,15,0,175,10,7,0,"[]",0.25887595051459306,-0.8875950514593072,rejected,1.1771577999461442,0
pgACC-TUS-staircase,,1,2024-02-13_13h15.58.173,None,04,,,-0.0494384765625,4.802638462611607,5.071207682291667,5.040283203125,5.055745442708334,5.105183919270834,15,15,12,15,190,7,7,7.289336016096578,"[0.010986328125, 0.010986328125, 0.010986328125, 0.01190185546875, 0.01129150390625, 0.01129150390625, 0.010986328125, 0.0115966796875, 0.0115966796875, 0.0103759765625, 0.0103759765625, 0.0103759765625, 0.0103759765625, 0.009765625, 0.009765625, 0.010986328125, 0.01068115234375, 0.01007080078125, 0.010986328125, 0.010986328125, 0.01220703125, 0.01190185546875, 0.013427734375, 0.02197265625, 0.02197265625, 0.04425048828125, 0.081787109375, 0.13671875, 0.13671875, 0.24688720703125, 0.40130615234375, 0.6646728515625, 0.91949462890625, 0.91949462890625, 1.2054443359375, 1.4837646484375, 1.78131103515625, 2.0343017578125, 2.0343017578125, 2.2467041015625, 2.435302734375, 2.62298583984375, 2.62298583984375, 2.740478515625, 2.8961181640625, 2.923583984375, 2.9986572265625, 2.9986572265625, 3.1536865234375, 3.204345703125, 3.2244873046875, 3.24462890625, 3.24462890625, 3.28216552734375, 3.3380126953125, 3.36090087890625, 3.36090087890625, 3.3758544921875, 3.36334228515625, 3.3636474609375, 3.4075927734375, 3.4075927734375, 3.4381103515625, 3.4283447265625, 3.45367431640625, 3.497314453125, 3.497314453125, 3.580322265625, 3.580322265625, 3.62701416015625, 3.62701416015625, 3.6260986328125, 3.6260986328125, 3.6260986328125, 3.6260986328125, 3.6285400390625, 3.6285400390625, 3.71124267578125, 3.71124267578125, 3.73626708984375, 3.73626708984375, 3.717041015625, 3.717041015625, 3.717041015625, 3.717041015625, 3.68133544921875, 3.68133544921875, 3.71307373046875, 3.71307373046875, 3.81195068359375, 3.81195068359375, 3.81195068359375, 3.81195068359375, 3.829345703125, 3.829345703125, 3.848876953125, 3.848876953125, 3.84124755859375, 3.84124755859375, 3.78082275390625, 3.78082275390625, 3.78082275390625, 3.78082275390625, 3.80218505859375, 3.80218505859375, 3.828125, 3.828125, 3.82110595703125, 3.82110595703125, 3.82110595703125, 3.82110595703125, 3.74969482421875, 3.74969482421875, 3.75213623046875, 3.75213623046875, 3.770751953125, 3.770751953125, 3.770751953125, 3.770751953125, 3.7646484375, 3.7646484375, 3.7408447265625, 3.7408447265625, 3.71978759765625, 3.71978759765625, 3.71978759765625, 3.71978759765625, 3.7042236328125, 3.7042236328125, 3.6962890625, 3.6962890625, 3.68621826171875, 3.68621826171875, 3.6871337890625, 3.6871337890625, 3.6871337890625, 3.6871337890625, 3.71337890625, 3.71337890625, 3.69384765625, 3.69384765625, 3.66119384765625, 3.66119384765625, 3.66119384765625, 3.66119384765625, 3.67645263671875, 3.67645263671875, 3.68133544921875, 3.68133544921875, 3.6859130859375, 3.6859130859375, 3.6859130859375, 3.6859130859375, 3.66119384765625, 3.66119384765625, 3.658447265625, 3.658447265625, 3.65753173828125, 3.65753173828125, 3.681640625, 3.681640625, 3.681640625, 3.681640625, 3.748779296875, 3.748779296875, 3.7109375, 3.7109375, 3.69354248046875, 3.69354248046875, 3.70819091796875, 3.70819091796875, 3.70819091796875, 3.70819091796875, 3.71063232421875, 3.71063232421875, 3.6932373046875, 3.6932373046875, 3.68133544921875, 3.68133544921875, 3.6810302734375, 3.6810302734375, 3.6810302734375, 3.6810302734375, 3.680419921875, 3.680419921875, 3.685302734375, 3.685302734375, 3.685302734375, 3.685302734375]",0.25887595051459306,2.3150784247849394,accepted,3.678328200010583,2.1077115000225604
pgACC-TUS-staircase,,1,2024-02-13_13h15.58.173,None,04,,,-0.0494384765625,4.802638462611607,5.071207682291667,5.040283203125,5.055745442708334,5.105183919270834,16,12,18,12,202,7,9,7.158953722334003,"[-0.009765625, -0.0091552734375, -0.0091552734375, -0.0091552734375, -0.00762939453125, -0.0079345703125, -0.0079345703125, -0.00762939453125, -0.00762939453125, -0.0067138671875, -0.0067138671875, -0.006103515625, -0.00518798828125, -0.00518798828125, -0.00518798828125, -0.00518798828125, -0.0054931640625, -0.0054931640625, -0.00457763671875, -0.0048828125, -0.0048828125, -0.0048828125, -0.00518798828125, -0.0042724609375, -0.0042724609375, -0.0042724609375, -0.00457763671875, -0.00518798828125, -0.00518798828125, -0.00518798828125, -0.0048828125, -0.00457763671875, -0.00457763671875, -0.00457763671875, -0.00396728515625, -0.0054931640625, -0.00396728515625, -0.00396728515625, -0.0042724609375, -0.00396728515625, -0.0042724609375, -0.0042724609375, -0.0048828125, -0.00457763671875, -0.0048828125, -0.0048828125, -0.0042724609375, -0.00518798828125, -0.00396728515625, -0.00396728515625, -0.00457763671875, -0.00457763671875, -0.0048828125, -0.0048828125, -0.00518798828125, -0.00518798828125, -0.00457763671875, -0.00457763671875, -0.0042724609375, -0.0042724609375, -0.003662109375, -0.003662109375, -0.0042724609375, -0.00396728515625, -0.00274658203125, 0.0006103515625, 0.0006103515625, 0.02166748046875, 0.0640869140625, 0.17730712890625, 0.17730712890625, 0.32989501953125, 0.614013671875, 1.02752685546875, 1.02752685546875, 1.45263671875, 1.76727294921875, 2.15789794921875, 2.454833984375, 2.454833984375, 2.73590087890625, 2.95318603515625, 3.0999755859375, 3.0999755859375, 3.25958251953125, 3.399658203125, 3.551025390625, 3.551025390625, 3.6761474609375, 3.6761474609375, 3.6761474609375, 3.6761474609375, 3.70086669921875, 3.70086669921875, 3.77288818359375, 3.77288818359375, 3.88214111328125, 3.88214111328125, 3.88214111328125, 3.88214111328125, 3.9239501953125, 3.9239501953125, 3.88671875, 3.88671875, 3.905029296875, 3.905029296875, 3.9337158203125, 3.9337158203125, 3.9337158203125, 3.9337158203125, 3.9013671875, 3.9013671875, 3.8946533203125, 3.8946533203125, 3.89312744140625, 3.89312744140625, 3.85650634765625, 3.85650634765625, 3.85650634765625, 3.85650634765625, 3.76190185546875, 3.76190185546875, 3.7286376953125, 3.7286376953125, 3.72222900390625, 3.72222900390625, 3.72222900390625, 3.72222900390625, 3.734130859375, 3.734130859375, 3.72039794921875, 3.72039794921875, 3.67919921875, 3.67919921875, 3.67919921875, 3.67919921875, 3.68408203125, 3.68408203125, 3.71490478515625, 3.71490478515625, 3.69903564453125, 3.69903564453125, 3.675537109375, 3.675537109375, 3.675537109375, 3.675537109375, 3.675537109375, 3.675537109375, 3.7152099609375, 3.7152099609375, 3.71124267578125, 3.71124267578125, 3.71124267578125, 3.71124267578125, 3.6773681640625, 3.6773681640625, 3.6767578125, 3.6767578125, 3.68743896484375, 3.68743896484375, 3.68072509765625, 3.68072509765625, 3.68072509765625, 3.68072509765625, 3.6358642578125, 3.6358642578125, 3.61602783203125, 3.61602783203125, 3.59649658203125, 3.59649658203125, 3.62335205078125, 3.62335205078125, 3.62335205078125, 3.62335205078125, 3.6260986328125, 3.6260986328125, 3.61602783203125, 3.61602783203125, 3.6065673828125, 3.6065673828125, 3.6065673828125, 3.6065673828125, 3.57818603515625, 3.57818603515625, 3.57696533203125, 3.57696533203125, 3.58673095703125, 3.58673095703125, 3.58673095703125, 3.58673095703125, 3.57757568359375, 3.57757568359375, 3.58489990234375, 3.58489990234375, 3.62548828125, 3.62548828125, 3.660888671875, 3.660888671875, 3.660888671875, 3.660888671875, 3.6370849609375, 3.6370849609375, 3.6090087890625, 3.6090087890625, 3.619384765625, 3.619384765625, 3.619384765625, 3.619384765625]",0.20793245973032676,-0.6849215752150606,accepted,4.697056399891153,2.4242356999311596
pgACC-TUS-staircase,,1,2024-02-13_13h15.58.173,None,04,,,-0.0494384765625,4.802638462611607,5.071207682291667,5.040283203125,5.055745442708334,5.105183919270834,17,18,20,0,202,9,9,0,"[]",0.25800368983462685,1.157470761843534,rejected,1.910702999914065,0
pgACC-TUS-staircase,,1,2024-02-13_13h15.58.173,None,04,,,-0.0494384765625,4.802638462611607,5.071207682291667,5.040283203125,5.055745442708334,5.105183919270834,18,20,23,0,202,9,9,0,"[]",0.25800368983462685,-0.8982988766047733,rejected,1.7043015998788178,0
pgACC-TUS-staircase,,1,2024-02-13_13h15.58.173,None,04,,,-0.0494384765625,4.802638462611607,5.071207682291667,5.040283203125,5.055745442708334,5.105183919270834,19,23,29,-1,201,9,10,0,"[-0.009765625, -0.009765625, -0.009765625, -0.009765625, -0.00946044921875, -0.00885009765625, -0.00885009765625, -0.008544921875, -0.00946044921875, -0.00946044921875, -0.009765625, -0.0091552734375, -0.009765625, -0.009765625, -0.01007080078125, -0.0091552734375, -0.00946044921875, -0.008544921875, -0.008544921875, -0.00885009765625, -0.0091552734375, -0.00885009765625, -0.00946044921875, -0.00946044921875, -0.00946044921875, -0.00885009765625, -0.0091552734375, -0.0091552734375, -0.00396728515625, 0.00457763671875, 0.0140380859375, 0.042724609375, 0.042724609375, 0.09857177734375, 0.26092529296875, 0.599365234375, 0.599365234375, 1.19781494140625, 1.60491943359375, 2.095947265625, 2.095947265625, 2.46795654296875, 2.745361328125, 2.957763671875, 3.16314697265625, 3.16314697265625, 3.22906494140625, 3.30230712890625, 3.36029052734375, 3.36029052734375, 3.4002685546875, 3.553466796875, 3.62457275390625, 3.6993408203125, 3.6993408203125, 3.79058837890625, 3.84979248046875, 3.89007568359375, 3.97979736328125, 3.97979736328125, 4.06005859375, 4.05242919921875, 4.08294677734375, 4.14886474609375, 4.14886474609375, 4.20684814453125, 4.22027587890625, 4.2266845703125, 4.273681640625, 4.273681640625, 4.290771484375, 4.290771484375, 4.29443359375, 4.25048828125, 4.25048828125, 4.2694091796875, 4.320068359375, 4.30145263671875, 4.3011474609375, 4.3011474609375, 4.38201904296875, 4.39971923828125, 4.3914794921875, 4.3914794921875, 4.4207763671875, 4.49462890625, 4.46563720703125, 4.50469970703125, 4.50469970703125, 4.527587890625, 4.527587890625, 4.5916748046875, 4.5916748046875, 4.6044921875, 4.6044921875, 4.6044921875, 4.6044921875, 4.60845947265625, 4.60845947265625, 4.6942138671875, 4.6942138671875, 4.710693359375, 4.710693359375, 4.710693359375, 4.710693359375, 4.67742919921875, 4.67742919921875, 4.61578369140625, 4.61578369140625, 4.65423583984375, 4.65423583984375, 4.65423583984375, 4.65423583984375, 4.691162109375, 4.691162109375, 4.647216796875, 4.647216796875, 4.59991455078125, 4.59991455078125, 4.586181640625, 4.586181640625, 4.586181640625, 4.586181640625, 4.5867919921875, 4.5867919921875, 4.58343505859375, 4.58343505859375, 4.57733154296875, 4.57733154296875, 4.5489501953125, 4.5489501953125, 4.564208984375, 4.564208984375, 4.5458984375, 4.52239990234375, 4.52239990234375, 4.5086669921875, 4.5098876953125, 4.47265625, 4.4232177734375, 4.4232177734375, 4.451904296875, 4.51446533203125, 4.525146484375, 4.521484375, 4.521484375, 4.4976806640625, 4.5086669921875, 4.5428466796875, 4.5428466796875, 4.5428466796875, 4.50836181640625, 4.53582763671875, 4.5660400390625, 4.5660400390625, 4.5660400390625, 4.5660400390625, 4.5684814453125, 4.5684814453125, 4.54315185546875, 4.5306396484375, 4.5306396484375, 4.547119140625, 4.49798583984375, 4.48638916015625, 4.5263671875, 4.5263671875, 4.5184326171875, 4.52301025390625, 4.51751708984375, 4.55352783203125, 4.55352783203125, 4.55352783203125, 4.55352783203125, 4.54620361328125, 4.5361328125, 4.532470703125, 4.56207275390625, 4.56207275390625, 4.56207275390625, 4.56207275390625, 4.54742431640625, 4.54803466796875, 4.5654296875, 4.5654296875, 4.5654296875, 4.5654296875, 4.54376220703125, 4.5501708984375, 4.5501708984375, 4.54681396484375, 4.54498291015625, 4.54498291015625, 4.5404052734375, 4.54071044921875, 4.5458984375, 4.5458984375, 4.541015625, 4.52728271484375, 4.49798583984375, 4.49798583984375, 4.49920654296875, 4.48211669921875, 4.40155029296875, 4.40155029296875, 4.3963623046875, 4.39697265625, 4.39727783203125, 4.39727783203125, 4.39727783203125, 4.38385009765625, 4.33685302734375, 4.33685302734375, 4.3475341796875, 4.36126708984375, 4.31793212890625, 4.31793212890625, 4.22760009765625, 4.180908203125, 4.0869140625, 4.0869140625, 3.88427734375, 3.7823486328125, 3.726806640625, 3.690185546875, 3.690185546875, 3.7030029296875, 3.720703125, 3.7347412109375, 3.76983642578125, 3.76983642578125, 3.8360595703125, 3.88397216796875, 3.863525390625, 3.863525390625, 3.848876953125, 3.77227783203125, 3.68927001953125, 3.68927001953125, 3.67156982421875, 3.662109375, 3.65081787109375, 3.65081787109375, 3.69781494140625, 3.68896484375, 3.65570068359375, 3.701171875, 3.701171875, 3.70941162109375, 3.65509033203125, 3.69354248046875, 3.69354248046875, 3.7298583984375, 3.6700439453125, 3.690185546875, 3.690185546875, 3.78875732421875, 3.82476806640625, 3.89068603515625, 3.89068603515625, 3.95111083984375, 3.951416015625, 3.9178466796875, 3.98895263671875, 3.98895263671875, 4.04083251953125, 3.9501953125, 3.94195556640625, 3.94195556640625, 3.95660400390625, 3.9361572265625, 3.91326904296875, 3.91326904296875, 3.90289306640625, 3.93829345703125, 3.98406982421875, 3.98406982421875, 4.0472412109375, 4.03167724609375, 3.973388671875, 4.05426025390625, 4.05426025390625, 4.09454345703125, 4.09576416015625, 4.1143798828125, 4.12200927734375, 4.12200927734375, 4.19677734375, 4.21478271484375, 4.18914794921875, 4.18914794921875, 4.19647216796875, 4.2669677734375, 4.24957275390625, 4.202880859375, 4.202880859375, 4.14459228515625, 4.10919189453125, 4.1290283203125, 4.1290283203125, 4.13787841796875, 4.078369140625, 4.07623291015625, 4.07623291015625, 4.08538818359375, 4.0338134765625, 3.95355224609375, 3.958740234375, 3.958740234375, 3.9666748046875, 3.95751953125, 3.9556884765625, 3.9556884765625, 3.956298828125, 3.96087646484375, 4.0386962890625, 4.000244140625, 4.000244140625, 3.983154296875, 4.06158447265625, 4.06158447265625, 4.10736083984375, 4.10736083984375, 4.08966064453125, 4.08966064453125, 4.09149169921875, 4.10675048828125, 4.11529541015625, 4.13848876953125, 4.09942626953125, 4.09942626953125, 4.07073974609375, 4.1082763671875, 4.15496826171875, 4.15496826171875, 4.17144775390625, 4.12200927734375, 4.19036865234375, 4.21630859375, 4.21630859375, 4.20013427734375, 4.15863037109375, 4.17205810546875, 4.17205810546875, 4.190673828125, 4.20074462890625, 4.12628173828125, 3.994140625, 3.994140625, 3.8385009765625, 3.62640380859375, 3.416748046875, 3.416748046875, 3.28643798828125, 3.2513427734375, 3.20770263671875, 3.154296875, 3.154296875, 2.95867919921875, 2.73712158203125, 2.62054443359375, 2.62054443359375, 2.48199462890625, 2.43194580078125, 2.275390625, 2.06787109375, 2.06787109375, 1.873779296875, 1.6522216796875, 1.44805908203125, 1.44805908203125, 1.09161376953125, 0.76995849609375, 0.56243896484375, 0.39825439453125, 0.39825439453125, 0.25970458984375, 0.21331787109375, 0.15411376953125, 0.15411376953125, 0.11444091796875, 0.09857177734375, 0.08575439453125, 0.07720947265625, 0.07720947265625, 0.072021484375, 0.06805419921875, 0.06500244140625, 0.06500244140625, 0.062255859375, 0.06103515625, 0.059814453125, 0.059814453125, 0.057373046875, 0.0555419921875, 0.05279541015625, 0.052490234375, 0.052490234375, 0.052490234375, 0.05096435546875, 0.04974365234375, 0.048828125, 0.048828125, 0.04791259765625, 0.04791259765625, 0.04730224609375, 0.04730224609375, 0.04669189453125, 0.04669189453125, 0.04669189453125, 0.0469970703125, 0.0469970703125, 0.04608154296875, 0.045166015625, 0.04486083984375, 0.04486083984375, 0.04486083984375, 0.0439453125, 0.0433349609375, 0.0433349609375, 0.04241943359375, 0.04180908203125, 0.04150390625, 0.04150390625, 0.04150390625, 0.04058837890625, 0.04180908203125, 0.04180908203125, 0.04180908203125, 0.04119873046875, 0.0421142578125, 0.0421142578125, 0.04241943359375, 0.04241943359375, 0.04180908203125, 0.04058837890625, 0.04150390625, 0.04150390625, 0.0408935546875, 0.040283203125, 0.03997802734375, 0.040283203125, 0.040283203125, 0.040283203125, 0.0396728515625, 0.0396728515625, 0.03997802734375, 0.03997802734375, 0.0390625, 0.040283203125, 0.0396728515625, 0.0396728515625, 0.03997802734375, 0.040283203125, 0.0384521484375, 0.0384521484375, 0.037841796875, 0.037841796875, 0.0372314453125, 0.0372314453125, 0.03692626953125, 0.03662109375, 0.03753662109375, 0.03753662109375, 0.03814697265625, 0.03875732421875, 0.0384521484375, 0.045166015625, 0.045166015625, 0.0836181640625, 0.2435302734375, 0.54168701171875, 0.54168701171875, 0.9210205078125, 1.26800537109375, 1.656494140625, 1.656494140625, 1.98150634765625, 2.28363037109375, 2.47894287109375, 2.47894287109375, 2.6409912109375, 2.8204345703125, 2.83111572265625, 2.83111572265625, 2.818603515625, 2.867431640625, 2.9595947265625, 2.97882080078125, 2.97882080078125, 2.98919677734375, 3.06976318359375, 3.19427490234375, 3.19427490234375, 3.17901611328125, 3.17596435546875, 3.22113037109375, 3.31451416015625, 3.31451416015625, 3.31298828125, 3.2891845703125, 3.3251953125, 3.40545654296875, 3.40545654296875, 3.46954345703125, 3.5186767578125, 3.52752685546875, 3.52752685546875, 3.52935791015625, 3.58367919921875, 3.590087890625]",0.25800368983462685,2.1017011233952267,accepted,3.883640900021419,8.002447900129482
pgACC-TUS-staircase,,1,2024-02-13_13h15.58.173,None,04,,,-0.0494384765625,4.802638462611607,5.071207682291667,5.040283203125,5.055745442708334,5.105183919270834,20,29,21,0,201,10,8,0,"[]",0.305843038170197,3.199631016537314,rejected,1.3980733999051154,0
pgACC-TUS-staircase,,1,2024-02-13_13h15.58.173,None,04,,,-0.0494384765625,4.802638462611607,5.071207682291667,5.040283203125,5.055745442708334,5.105183919270834,21,21,28,-1,200,8,10,0,"[0.11566162109375, 0.1177978515625, 0.123291015625, 0.12542724609375, 0.12542724609375, 0.12542724609375, 0.120849609375, 0.11871337890625, 0.11932373046875, 0.11932373046875, 0.12237548828125, 0.12542724609375, 0.125732421875, 0.125732421875, 0.1263427734375, 0.12664794921875, 0.12725830078125, 0.12847900390625, 0.12847900390625, 0.14892578125, 0.1849365234375, 0.23590087890625, 0.23590087890625, 0.37750244140625, 0.59417724609375, 0.92041015625, 1.27655029296875, 1.27655029296875, 1.57196044921875, 1.85516357421875, 2.23846435546875, 2.23846435546875, 2.48870849609375, 2.69256591796875, 2.82928466796875, 2.82928466796875, 2.9388427734375, 3.0682373046875, 3.15826416015625, 3.2147216796875, 3.2147216796875, 3.32366943359375, 3.4307861328125, 3.46435546875, 3.46435546875, 3.5345458984375, 3.6065673828125, 3.648681640625, 3.687744140625, 3.687744140625, 3.8104248046875, 3.85101318359375, 3.84063720703125, 3.84063720703125, 3.8775634765625, 3.92791748046875, 3.96209716796875, 3.97918701171875, 3.97918701171875, 4.00299072265625, 4.053955078125, 4.053955078125, 4.107666015625, 4.107666015625, 4.10980224609375, 4.10980224609375, 4.10980224609375, 4.10980224609375, 4.12445068359375, 4.12445068359375, 4.15008544921875, 4.15008544921875, 4.19097900390625, 4.19097900390625, 4.19097900390625, 4.19097900390625, 4.1900634765625, 4.1900634765625, 4.1680908203125, 4.1680908203125, 4.17327880859375, 4.17327880859375, 4.17266845703125, 4.17266845703125, 4.19097900390625, 4.19097900390625, 4.19097900390625, 4.19097900390625, 4.14154052734375, 4.14154052734375, 4.13299560546875, 4.13299560546875, 4.15863037109375, 4.15863037109375, 4.15863037109375, 4.15863037109375, 4.16107177734375, 4.16107177734375, 4.1510009765625, 4.1510009765625, 4.1510009765625, 4.1510009765625, 4.14337158203125, 4.14337158203125, 4.1094970703125, 4.1094970703125, 4.1009521484375, 4.1009521484375, 4.09149169921875, 4.09149169921875, 4.09149169921875, 4.09149169921875, 4.09210205078125, 4.09210205078125, 4.0802001953125, 4.0802001953125, 4.0814208984375, 4.0814208984375, 4.0814208984375, 4.0814208984375, 4.0850830078125, 4.0850830078125, 4.090576171875, 4.090576171875, 4.09576416015625, 4.09576416015625, 4.09332275390625, 4.09332275390625, 4.09332275390625, 4.09332275390625, 4.0863037109375, 4.0863037109375, 4.06890869140625, 4.06890869140625, 4.06829833984375, 4.06829833984375, 4.08233642578125, 4.08233642578125, 4.08233642578125, 4.08233642578125, 4.07012939453125, 4.07012939453125, 4.06005859375, 4.06005859375, 4.05364990234375, 4.05364990234375, 4.05364990234375, 4.05364990234375, 4.0557861328125, 4.0557861328125, 4.0509033203125, 4.0509033203125, 4.049072265625, 4.049072265625, 4.0509033203125, 4.0509033203125, 4.0509033203125, 4.0509033203125, 4.063720703125, 4.063720703125, 4.0325927734375, 4.01458740234375, 3.99139404296875, 3.99139404296875, 4.0380859375, 4.0496826171875, 4.0496826171875, 3.973388671875, 3.973388671875, 3.97125244140625, 4.017333984375, 3.990478515625, 4.01763916015625, 4.01763916015625, 4.0216064453125, 4.04876708984375, 4.04876708984375, 4.03839111328125, 4.0594482421875, 4.0594482421875, 4.0594482421875, 4.0594482421875, 4.05914306640625, 4.05914306640625, 4.083251953125, 4.083251953125, 4.09912109375, 4.09912109375, 4.11651611328125, 4.11651611328125, 4.11651611328125, 4.11651611328125, 4.12017822265625, 4.12017822265625, 4.0875244140625, 4.0875244140625, 4.12445068359375, 4.12445068359375, 4.12445068359375, 4.12445068359375, 4.1571044921875, 4.1571044921875, 4.14703369140625, 4.14703369140625, 4.14825439453125, 4.14825439453125, 4.16717529296875, 4.16717529296875, 4.16717529296875, 4.16717529296875, 4.1680908203125, 4.1680908203125, 4.16015625, 4.16015625, 4.1632080078125, 4.1632080078125, 4.1632080078125, 4.1632080078125, 4.16534423828125, 4.16534423828125, 4.127197265625, 4.127197265625, 4.0997314453125, 4.0997314453125, 4.08966064453125, 4.08966064453125, 4.08966064453125, 4.08966064453125, 4.06005859375, 4.06005859375, 4.00146484375, 4.00543212890625, 4.00543212890625, 3.9935302734375, 3.95599365234375, 3.9825439453125, 3.9825439453125, 3.984375, 3.9892578125, 3.9794921875, 3.9794921875, 3.96820068359375, 3.931884765625, 3.94683837890625, 3.93829345703125, 3.93829345703125, 3.9251708984375, 3.9349365234375, 3.944091796875, 3.92333984375, 3.92333984375, 3.91998291015625, 3.9044189453125, 3.8525390625, 3.8525390625, 3.76251220703125, 3.62396240234375, 3.3477783203125, 3.09783935546875, 3.09783935546875, 2.955322265625, 2.8717041015625, 2.71697998046875, 2.71697998046875, 2.6202392578125, 2.4456787109375, 2.16064453125, 1.91131591796875, 1.91131591796875, 1.6455078125, 1.4764404296875, 1.33270263671875, 1.23504638671875, 1.23504638671875, 1.12640380859375, 1.05987548828125, 0.94970703125, 0.86212158203125, 0.86212158203125, 0.69366455078125, 0.5682373046875, 0.47576904296875, 0.3887939453125, 0.3887939453125, 0.3125, 0.2484130859375, 0.2435302734375, 0.2435302734375, 0.24627685546875, 0.296630859375, 0.50567626953125, 0.867919921875, 0.867919921875, 1.25030517578125, 1.77947998046875, 2.1844482421875, 2.44171142578125, 2.44171142578125, 2.6324462890625, 2.69622802734375, 2.69622802734375, 2.7667236328125, 2.943115234375, 3.05877685546875, 3.12286376953125, 3.21746826171875, 3.21746826171875, 3.27392578125, 3.36883544921875, 3.37921142578125, 3.37921142578125, 3.45245361328125, 3.5723876953125, 3.6273193359375, 3.6273193359375, 3.64105224609375, 3.68743896484375, 3.74359130859375, 3.74359130859375, 3.73992919921875, 3.831787109375, 3.88458251953125, 3.88458251953125, 3.89434814453125, 3.91082763671875, 3.9935302734375, 4.04296875, 4.04296875, 4.078369140625, 4.078369140625, 4.06158447265625, 4.06158447265625, 4.088134765625, 4.088134765625, 4.1046142578125, 4.1046142578125, 4.1046142578125, 4.1046142578125, 4.1253662109375, 4.1253662109375, 4.11407470703125, 4.11407470703125, 4.17083740234375, 4.17083740234375, 4.19464111328125, 4.19464111328125, 4.19464111328125, 4.19464111328125, 4.183349609375, 4.183349609375, 4.15496826171875, 4.15496826171875, 4.15191650390625, 4.15191650390625, 4.15191650390625, 4.15191650390625, 4.15435791015625, 4.15435791015625, 4.1278076171875, 4.1278076171875, 4.12261962890625, 4.12261962890625, 4.102783203125, 4.102783203125, 4.102783203125, 4.102783203125, 4.102783203125, 4.102783203125, 4.13818359375, 4.13818359375, 4.15191650390625, 4.15191650390625, 4.13970947265625, 4.13970947265625, 4.13970947265625, 4.13970947265625, 4.1094970703125, 4.1094970703125, 4.09393310546875, 4.09393310546875, 4.10003662109375, 4.10003662109375, 4.10003662109375, 4.10003662109375, 4.12628173828125, 4.12628173828125, 4.13970947265625, 4.13970947265625, 4.10980224609375, 4.10980224609375, 4.10980224609375, 4.10980224609375, 4.09698486328125, 4.09698486328125, 4.13116455078125, 4.13116455078125, 4.16351318359375, 4.16351318359375, 4.146728515625, 4.146728515625, 4.146728515625, 4.146728515625, 4.140625, 4.140625, 4.156494140625, 4.156494140625, 4.15863037109375, 4.15863037109375, 4.16351318359375, 4.16351318359375, 4.16351318359375, 4.16351318359375, 4.15191650390625, 4.15191650390625, 4.1522216796875, 4.1522216796875, 4.1558837890625, 4.1558837890625, 4.16168212890625, 4.16168212890625, 4.16168212890625, 4.16168212890625, 4.1229248046875, 4.1229248046875, 4.097900390625, 4.097900390625, 4.08782958984375, 4.08782958984375, 4.08782958984375, 4.08782958984375, 4.09271240234375, 4.09271240234375, 4.0850830078125, 4.0850830078125, 4.0594482421875, 4.0594482421875, 4.0594482421875, 4.0594482421875, 4.06005859375, 4.06005859375, 4.0679931640625, 4.0679931640625, 3.992919921875, 3.98406982421875, 3.98406982421875, 4.0087890625, 3.9813232421875, 3.96209716796875, 3.96209716796875, 3.9324951171875, 3.89984130859375, 3.9166259765625, 3.9166259765625, 3.902587890625, 3.89739990234375, 3.90899658203125, 3.90899658203125, 3.91204833984375, 3.892822265625, 3.8970947265625, 3.8970947265625, 3.9044189453125, 3.91357421875, 3.89862060546875, 3.89862060546875, 3.90106201171875, 3.9129638671875, 3.8922119140625, 3.8946533203125, 3.8946533203125, 3.895263671875, 3.89617919921875, 3.8983154296875, 3.8983154296875, 3.92822265625, 3.9483642578125, 3.9453125, 3.9453125, 3.95233154296875, 3.98193359375, 4.0008544921875, 4.0008544921875, 3.98223876953125, 3.96881103515625, 3.97003173828125, 3.97003173828125, 3.9837646484375, 3.96881103515625, 3.96087646484375, 3.96087646484375, 3.98223876953125, 3.98895263671875, 3.98406982421875, 3.98040771484375, 3.98040771484375, 4.03564453125, 4.05517578125, 4.05517578125, 4.0277099609375, 4.0277099609375, 4.0826416015625, 4.0826416015625, 4.100341796875, 4.100341796875, 4.0972900390625, 4.0972900390625, 4.11712646484375, 4.11712646484375, 4.11712646484375, 4.11712646484375, 4.14093017578125, 4.14093017578125, 4.12506103515625, 4.12506103515625, 4.11590576171875, 4.11590576171875, 4.11590576171875, 4.11590576171875, 4.1339111328125, 4.1339111328125, 4.1656494140625, 4.1656494140625, 4.163818359375, 4.163818359375, 4.16290283203125, 4.16290283203125, 4.16290283203125, 4.16290283203125, 4.16107177734375, 4.16107177734375, 4.1864013671875, 4.1864013671875, 4.19158935546875, 4.19158935546875, 4.19158935546875, 4.19158935546875, 4.16778564453125, 4.16778564453125, 4.1668701171875, 4.1668701171875, 4.19525146484375, 4.19525146484375, 4.19525146484375, 4.19525146484375, 4.18182373046875, 4.18182373046875, 4.17388916015625, 4.17388916015625, 4.17694091796875, 4.17694091796875, 4.17694091796875, 4.17694091796875, 4.1693115234375, 4.1693115234375, 4.16229248046875, 4.16229248046875, 4.163818359375, 4.163818359375, 4.163818359375, 4.163818359375, 4.15283203125, 4.15283203125, 4.1424560546875, 4.1424560546875, 4.1534423828125, 4.1534423828125, 4.1534423828125, 4.1534423828125, 4.13665771484375, 4.13665771484375, 4.12384033203125, 4.12384033203125, 4.13787841796875, 4.13787841796875, 4.1497802734375, 4.1497802734375, 4.1552734375, 4.1552734375, 4.1552734375, 4.1552734375, 4.12689208984375, 4.12689208984375, 4.13330078125, 4.13330078125, 4.15191650390625, 4.15191650390625, 4.15191650390625, 4.15191650390625, 4.1461181640625, 4.1461181640625, 4.11407470703125, 4.11407470703125, 4.11285400390625, 4.11285400390625, 4.11285400390625, 4.11285400390625, 4.127197265625, 4.127197265625, 4.1156005859375, 4.1156005859375, 4.09027099609375, 4.09027099609375, 4.09027099609375, 4.09027099609375, 4.0771484375, 4.0771484375, 4.08905029296875, 4.08905029296875, 4.09027099609375, 4.09027099609375, 4.09027099609375, 4.09027099609375, 4.08447265625, 4.08447265625, 4.06494140625, 4.06494140625, 4.04022216796875, 3.9837646484375, 3.9837646484375, 3.9837646484375, 3.9556884765625, 3.9556884765625, 3.92425537109375, 3.94317626953125, 3.93951416015625, 3.93951416015625, 3.9154052734375, 3.8897705078125, 3.8873291015625, 3.86810302734375, 3.86810302734375, 3.84246826171875, 3.8330078125, 3.8330078125, 3.8067626953125, 3.7835693359375, 3.69720458984375, 3.6895751953125, 3.6895751953125, 3.685302734375, 3.63555908203125, 3.58001708984375, 3.58001708984375, 3.441162109375, 3.13934326171875, 2.60955810546875, 2.60955810546875, 1.99676513671875, 1.60003662109375, 1.4251708984375, 1.4251708984375, 1.202392578125, 0.91552734375, 0.68695068359375, 0.5169677734375, 0.5169677734375, 0.3997802734375, 0.333251953125, 0.28900146484375, 0.28900146484375, 0.25787353515625, 0.24261474609375, 0.24810791015625, 0.24810791015625, 0.302734375, 0.48736572265625, 0.98358154296875, 1.3446044921875, 1.3446044921875, 1.77032470703125, 2.26654052734375, 2.552490234375, 2.552490234375, 2.698974609375, 2.89306640625]",0.305843038170197,1.4260455571073933,accepted,7.31492460006848,8.013317300006747
pgACC-TUS-staircase,,1,2024-02-13_13h15.58.173,None,04,,,-0.0494384765625,4.802638462611607,5.071207682291667,5.040283203125,5.055745442708334,5.105183919270834,22,28,6,0,200,10,4,0,"[]",0.305843038170197,-2.5843038170196984,rejected,1.5925716001074761,0
pgACC-TUS-staircase,,1,2024-02-13_13h15.58.173,None,04,,,-0.0494384765625,4.802638462611607,5.071207682291667,5.040283203125,5.055745442708334,5.105183919270834,23,6,22,0,200,4,8,0,"[]",0.3518821896347172,1.1065113892768483,rejected,2.1100745999719948,0
pgACC-TUS-staircase,,1,2024-02-13_13h15.58.173,None,04,,,-0.0494384765625,4.802638462611607,5.071207682291667,5.040283203125,5.055745442708334,5.105183919270834,24,22,9,0,200,8,5,0,"[]",0.3518821896347172,-0.5204601366218995,rejected,2.612278199987486,0
pgACC-TUS-staircase,,1,2024-02-13_13h15.58.173,None,04,,,-0.0494384765625,4.802638462611607,5.071207682291667,5.040283203125,5.055745442708334,5.105183919270834,25,9,17,0,200,5,7,0,"[]",0.39689743390977916,0.20294525913207018,rejected,3.1506990001071244,0
pgACC-TUS-staircase,,1,2024-02-13_13h15.58.173,None,04,,,-0.0494384765625,4.802638462611607,5.071207682291667,5.040283203125,5.055745442708334,5.105183919270834,26,17,21,17,217,7,8,7.822937625754526,"[0.0494384765625, 0.048828125, 0.04638671875, 0.0433349609375, 0.0433349609375, 0.03997802734375, 0.0384521484375, 0.0384521484375, 0.03662109375, 0.0341796875, 0.0323486328125, 0.0323486328125, 0.030517578125, 0.028076171875, 0.02532958984375, 0.02532958984375, 0.02410888671875, 0.02105712890625, 0.0189208984375, 0.0152587890625, 0.0152587890625, 0.013427734375, 0.01068115234375, 0.0091552734375, 0.0091552734375, 0.01068115234375, 0.01251220703125, 0.0128173828125, 0.0128173828125, 0.02166748046875, 0.0390625, 0.069580078125, 0.069580078125, 0.13671875, 0.3472900390625, 0.67169189453125, 1.11663818359375, 1.11663818359375, 1.53411865234375, 2.06573486328125, 2.4462890625, 2.4462890625, 2.7392578125, 3.0560302734375, 3.18084716796875, 3.18084716796875, 3.2147216796875, 3.32244873046875, 3.44329833984375, 3.4783935546875, 3.4783935546875, 3.58856201171875, 3.58856201171875, 3.641357421875, 3.641357421875, 3.67218017578125, 3.67218017578125, 3.67218017578125, 3.67218017578125, 3.729248046875, 3.729248046875, 3.85894775390625, 3.85894775390625, 3.8531494140625, 3.8531494140625, 3.79302978515625, 3.79302978515625, 3.79302978515625, 3.79302978515625, 3.8470458984375, 3.8470458984375, 3.9044189453125, 3.9044189453125, 3.96881103515625, 3.96881103515625, 3.98956298828125, 3.98956298828125, 3.98956298828125, 3.98956298828125, 4.033203125, 4.033203125, 4.0966796875, 4.0966796875, 4.0771484375, 4.0771484375, 4.0771484375, 4.0771484375, 3.98834228515625, 3.98834228515625, 3.94622802734375, 3.94622802734375, 3.985595703125, 3.985595703125, 3.96484375, 3.96484375, 3.96484375, 3.96484375, 3.9654541015625, 3.9654541015625, 3.99200439453125, 3.99200439453125, 4.0606689453125, 4.0606689453125, 4.0606689453125, 4.0606689453125, 4.07470703125, 4.07470703125, 4.05548095703125, 4.05548095703125, 4.0606689453125, 4.0606689453125, 4.0606689453125, 4.0606689453125, 4.0924072265625, 4.0924072265625, 4.08538818359375, 4.08538818359375, 4.0728759765625, 4.0728759765625, 4.08416748046875, 4.08416748046875, 4.08416748046875, 4.08416748046875, 4.06402587890625, 4.06402587890625, 4.06494140625, 4.06494140625, 3.8970947265625, 3.8970947265625, 3.6834716796875, 3.6834716796875, 3.6834716796875, 3.6834716796875, 3.67156982421875, 3.67156982421875, 3.662109375, 3.662109375, 3.643798828125, 3.643798828125, 3.643798828125, 3.643798828125, 3.66363525390625, 3.66363525390625, 3.67279052734375, 3.67279052734375, 3.68316650390625, 3.68316650390625, 3.68316650390625, 3.68316650390625, 3.7066650390625, 3.7066650390625, 3.70697021484375, 3.70697021484375, 3.6859130859375, 3.6859130859375, 3.6859130859375, 3.6859130859375, 3.68438720703125, 3.68438720703125, 3.78021240234375, 3.78021240234375, 3.8525390625, 3.8525390625, 3.8531494140625, 3.8531494140625, 3.8531494140625, 3.8531494140625, 3.8623046875, 3.8623046875, 3.93890380859375, 3.93890380859375, 3.955078125, 3.955078125]",0.3523513032537737,-2.44797426157918,accepted,4.41502539999783,1.8335927999578416
pgACC-TUS-staircase,,1,2024-02-13_13h15.58.173,None,04,,,-0.0494384765625,4.802638462611607,5.071207682291667,5.040283203125,5.055745442708334,5.105183919270834,27,21,14,0,217,8,7,0,"[]",0.3523513032537737,-1.550483408241515,rejected,2.2631706001702696,0
pgACC-TUS-staircase,,1,2024-02-13_13h15.58.173,None,04,,,-0.0494384765625,4.802638462611607,5.071207682291667,5.040283203125,5.055745442708334,5.105183919270834,28,14,10,14,231,7,5,8.045674044265592,"[-0.009765625, -0.01068115234375, -0.01068115234375, -0.01068115234375, -0.010986328125, -0.0103759765625, -0.0103759765625, -0.010986328125, -0.0115966796875, -0.0115966796875, -0.010986328125, -0.01129150390625, -0.01129150390625, -0.01068115234375, -0.0103759765625, -0.010986328125, -0.010986328125, -0.010986328125, -0.010986328125, -0.0115966796875, -0.0115966796875, -0.0128173828125, -0.0115966796875, -0.0115966796875, -0.0115966796875, -0.01190185546875, -0.01220703125, -0.01190185546875, -0.01190185546875, -0.01129150390625, -0.0115966796875, -0.0115966796875, -0.01129150390625, -0.01129150390625, -0.00457763671875, 0.05706787109375, 0.18402099609375, 0.18402099609375, 0.445556640625, 0.70648193359375, 1.04248046875, 1.3214111328125, 1.3214111328125, 1.7529296875, 2.05047607421875, 2.3602294921875, 2.3602294921875, 2.66571044921875, 2.77923583984375, 2.91290283203125, 2.91290283203125, 2.94342041015625, 2.950439453125, 2.9620361328125, 3.0902099609375, 3.0902099609375, 3.1549072265625, 3.22296142578125, 3.3624267578125, 3.3624267578125, 3.44635009765625, 3.409423828125, 3.39935302734375, 3.38623046875, 3.38623046875, 3.4027099609375, 3.399658203125, 3.43109130859375, 3.43109130859375, 3.52447509765625, 3.63616943359375, 3.63616943359375, 3.65020751953125, 3.65020751953125, 3.60870361328125, 3.60870361328125, 3.59588623046875, 3.59588623046875, 3.59588623046875, 3.59588623046875, 3.63525390625, 3.63525390625, 3.6541748046875, 3.6541748046875, 3.6590576171875, 3.6590576171875, 3.6590576171875, 3.6590576171875, 3.68927001953125, 3.68927001953125, 3.76678466796875, 3.76678466796875, 3.80584716796875, 3.80584716796875, 3.8360595703125, 3.8360595703125, 3.8360595703125, 3.8360595703125, 3.89068603515625, 3.89068603515625, 3.902587890625, 3.902587890625, 3.9202880859375, 3.9202880859375, 3.9202880859375, 3.9202880859375, 3.89007568359375, 3.89007568359375, 3.9019775390625, 3.9019775390625, 3.90777587890625, 3.90777587890625, 3.90777587890625, 3.90777587890625, 3.9483642578125, 3.9483642578125, 3.9337158203125, 3.9337158203125, 3.94805908203125, 3.94805908203125, 3.956298828125, 3.956298828125, 3.956298828125, 3.956298828125, 3.8909912109375, 3.8909912109375, 3.902587890625, 3.902587890625, 3.902587890625, 3.902587890625, 3.91998291015625, 3.91998291015625, 3.94317626953125, 3.94317626953125, 3.95111083984375, 3.95111083984375, 3.93463134765625, 3.93463134765625, 3.93463134765625, 3.93463134765625, 3.9276123046875, 3.9276123046875, 3.92333984375, 3.92333984375, 3.91082763671875, 3.91082763671875, 3.91082763671875, 3.91082763671875, 3.88519287109375, 3.88519287109375, 3.885498046875, 3.885498046875, 3.89892578125, 3.89892578125, 3.91510009765625, 3.91510009765625, 3.91510009765625, 3.91510009765625, 3.96759033203125, 3.96759033203125, 3.9703369140625, 3.9703369140625, 3.9617919921875, 3.9617919921875, 3.9617919921875, 3.9617919921875, 4.03656005859375, 4.03656005859375, 4.08447265625, 4.08447265625, 4.03778076171875, 4.03778076171875, 3.983154296875, 3.983154296875, 3.983154296875, 3.983154296875, 3.96636962890625, 3.96636962890625, 3.97857666015625, 3.97857666015625, 3.97369384765625, 3.97369384765625, 3.97369384765625, 3.97369384765625, 4.01153564453125, 4.01153564453125, 4.085693359375, 4.085693359375, 4.06890869140625, 4.06890869140625, 4.06768798828125, 4.06768798828125]",0.3086703018207793,-3.2652138594349083,accepted,9.050684100016952,2.1482462999410927
pgACC-TUS-staircase,,1,2024-02-13_13h15.58.173,None,04,,,-0.0494384765625,4.802638462611607,5.071207682291667,5.040283203125,5.055745442708334,5.105183919270834,29,10,5,10,241,5,4,5.374044265593561,"[0.0054931640625, 0.00518798828125, 0.00457763671875, 0.00457763671875, 0.00396728515625, 0.00396728515625, 0.00396728515625, 0.003662109375, 0.00457763671875, 0.00457763671875, 0.00457763671875, 0.0048828125, 0.00457763671875, 0.0048828125, 0.0048828125, 0.00396728515625, 0.00396728515625, 0.0042724609375, 0.0042724609375, 0.0048828125, 0.00732421875, 0.0213623046875, 0.032958984375, 0.032958984375, 0.0396728515625, 0.04241943359375, 0.05279541015625, 0.07293701171875, 0.07293701171875, 0.11688232421875, 0.24169921875, 0.41107177734375, 0.41107177734375, 0.653076171875, 0.9344482421875, 1.24969482421875, 1.24969482421875, 1.500244140625, 1.77703857421875, 2.0013427734375, 2.19512939453125, 2.19512939453125, 2.3504638671875, 2.4786376953125, 2.66021728515625, 2.66021728515625, 2.70416259765625, 2.70416259765625, 2.70416259765625, 2.70416259765625, 2.8167724609375, 2.8167724609375, 2.92938232421875, 2.92938232421875, 3.1011962890625, 3.1011962890625, 3.1011962890625, 3.1011962890625, 3.15216064453125, 3.15216064453125, 3.15093994140625, 3.15093994140625, 3.20526123046875, 3.20526123046875, 3.218994140625, 3.218994140625, 3.218994140625, 3.218994140625, 3.19488525390625, 3.19488525390625, 3.16162109375, 3.16162109375, 3.1634521484375, 3.1634521484375, 3.1634521484375, 3.1634521484375, 3.182373046875, 3.182373046875, 3.123779296875, 3.123779296875, 3.11920166015625, 3.11920166015625, 3.11798095703125, 3.11798095703125, 3.11798095703125, 3.11798095703125, 3.13385009765625, 3.13385009765625, 3.14971923828125, 3.14971923828125, 3.12652587890625, 3.12652587890625, 3.12652587890625, 3.12652587890625, 3.13873291015625, 3.13873291015625, 3.13873291015625, 3.13873291015625, 3.12103271484375, 3.12103271484375, 3.12103271484375, 3.12103271484375, 3.12103271484375, 3.12103271484375, 3.0755615234375, 3.0755615234375, 3.0615234375, 3.0615234375, 3.06732177734375, 3.06732177734375, 3.06732177734375, 3.06732177734375, 3.0224609375, 3.0224609375, 2.9608154296875, 2.9608154296875, 2.9632568359375, 2.9632568359375, 2.9583740234375, 2.9583740234375, 2.9583740234375, 2.9583740234375, 2.938232421875, 2.938232421875, 2.88543701171875, 2.88543701171875, 2.89215087890625, 2.89215087890625, 2.89215087890625, 2.89215087890625, 2.89154052734375, 2.89154052734375, 2.8851318359375, 2.8851318359375, 2.855224609375, 2.855224609375, 2.855224609375, 2.855224609375, 2.852783203125, 2.852783203125, 2.84454345703125, 2.84454345703125, 2.8753662109375, 2.8753662109375, 2.861328125, 2.861328125, 2.861328125, 2.861328125, 2.8271484375, 2.8271484375, 2.79998779296875, 2.79998779296875, 2.7764892578125, 2.7764892578125, 2.7593994140625, 2.7593994140625, 2.7593994140625, 2.7593994140625, 2.74078369140625, 2.74078369140625, 2.720947265625, 2.720947265625, 2.71697998046875, 2.71697998046875, 2.71697998046875, 2.71697998046875]",0.3086703018207793,2.2832424544805168,accepted,2.8778514000587165,1.7207897999323905
pgACC-TUS-staircase,,1,2024-02-13_13h15.58.173,None,04,,,-0.0494384765625,4.802638462611607,5.071207682291667,5.040283203125,5.055745442708334,5.105183919270834,30,5,26,0,241,4,9,0,"[]",0.35157025194618047,0.06127517086753098,rejected,1.2864785999991,0
pgACC-TUS-staircase,,1,2024-02-13_13h15.58.173,None,04,,,-0.0494384765625,4.802638462611607,5.071207682291667,5.040283203125,5.055745442708334,5.105183919270834,31,26,8,0,241,9,5,0,"[]",0.35157025194618047,-2.4771904076406166,rejected,3.0918280000332743,0
pgACC-TUS-staircase,,1,2024-02-13_13h15.58.173,None,04,,,-0.0494384765625,4.802638462611607,5.071207682291667,5.040283203125,5.055745442708334,5.105183919270834,32,8,4,0,241,5,4,0,"[]",0.35157025194618047,-0.7892562986545109,rejected,3.468172400025651,0
pgACC-TUS-staircase,,1,2024-02-13_13h15.58.173,None,04,,,-0.0494384765625,4.802638462611607,5.071207682291667,5.040283203125,5.055745442708334,5.105183919270834,33,4,17,4,245,4,7,5.583501006036217,"[-0.0152587890625, -0.0152587890625, -0.0152587890625, -0.01556396484375, -0.01556396484375, -0.015869140625, -0.0152587890625, -0.0152587890625, -0.0152587890625, -0.01556396484375, -0.01556396484375, -0.0164794921875, -0.0164794921875, -0.015869140625, -0.0164794921875, -0.0164794921875, -0.0164794921875, -0.015869140625, -0.0164794921875, -0.01617431640625, -0.0152587890625, -0.0152587890625, -0.01617431640625, -0.0146484375, -0.00701904296875, 0.05401611328125, 0.05401611328125, 0.13275146484375, 0.32318115234375, 0.5926513671875, 0.89935302734375, 1.18408203125, 1.18408203125, 1.51336669921875, 1.79351806640625, 2.0611572265625, 2.0611572265625, 2.2918701171875, 2.2918701171875, 2.2918701171875, 2.2918701171875, 2.44781494140625, 2.44781494140625, 2.50213623046875, 2.50213623046875, 2.64739990234375, 2.64739990234375, 2.64739990234375, 2.64739990234375, 2.70904541015625, 2.70904541015625, 2.8057861328125, 2.8057861328125, 2.85736083984375, 2.85736083984375, 2.85736083984375, 2.85736083984375, 2.88116455078125, 2.88116455078125, 2.9376220703125, 2.9376220703125, 2.9669189453125, 2.9669189453125, 2.9669189453125, 2.9669189453125, 2.98919677734375, 2.98919677734375, 2.994384765625, 2.994384765625, 2.9669189453125, 2.9669189453125, 2.960205078125, 2.960205078125, 2.960205078125, 2.960205078125, 2.94952392578125, 2.94952392578125, 2.96722412109375, 2.96722412109375, 3.01513671875, 3.01513671875, 3.0584716796875, 3.0584716796875, 3.0584716796875, 3.0584716796875, 2.999267578125, 2.999267578125, 2.97821044921875, 2.97821044921875, 2.96600341796875, 2.96600341796875, 2.96600341796875, 2.96600341796875, 2.955322265625, 2.955322265625, 2.93365478515625, 2.93365478515625, 2.86956787109375, 2.86956787109375, 2.8448486328125, 2.8448486328125, 2.8448486328125, 2.8448486328125, 2.90191650390625, 2.90191650390625, 2.91595458984375, 2.91595458984375, 2.9150390625, 2.9150390625, 2.9150390625, 2.9150390625, 2.91839599609375, 2.91839599609375, 2.886962890625, 2.886962890625, 2.8839111328125, 2.8839111328125, 2.87689208984375, 2.87689208984375, 2.85797119140625, 2.85797119140625, 2.85797119140625, 2.85797119140625, 2.8564453125, 2.8564453125, 2.8765869140625, 2.8765869140625, 2.88330078125, 2.88330078125, 2.88330078125, 2.88330078125, 2.87628173828125, 2.87628173828125, 2.8472900390625, 2.8472900390625, 2.77984619140625, 2.77984619140625, 2.78106689453125, 2.78106689453125, 2.78106689453125, 2.78106689453125, 2.80975341796875, 2.80975341796875, 2.77923583984375, 2.77923583984375, 2.77374267578125, 2.77374267578125, 2.777099609375, 2.777099609375, 2.777099609375, 2.777099609375, 2.7960205078125, 2.7960205078125, 2.82806396484375, 2.82806396484375, 2.8228759765625, 2.8228759765625]",0.30971195495483694,-1.6251240311388875,accepted,3.0500685998704284,1.5699877999722958
pgACC-TUS-staircase,,1,2024-02-13_13h15.58.173,None,04,,,-0.0494384765625,4.802638462611607,5.071207682291667,5.040283203125,5.055745442708334,5.105183919270834,34,17,29,17,262,7,10,7.789134808853118,"[0.0775146484375, 0.0775146484375, 0.08087158203125, 0.0811767578125, 0.07720947265625, 0.07720947265625, 0.0701904296875, 0.06622314453125, 0.064697265625, 0.064697265625, 0.06256103515625, 0.05828857421875, 0.05035400390625, 0.0482177734375, 0.0482177734375, 0.047607421875, 0.04730224609375, 0.04730224609375, 0.04730224609375, 0.0445556640625, 0.04180908203125, 0.0408935546875, 0.04058837890625, 0.04058837890625, 0.04302978515625, 0.062255859375, 0.12847900390625, 0.12847900390625, 0.39520263671875, 0.81451416015625, 1.31805419921875, 1.31805419921875, 1.84295654296875, 2.4365234375, 2.7569580078125, 3.00140380859375, 3.00140380859375, 3.2672119140625, 3.406982421875, 3.516845703125, 3.516845703125, 3.634033203125, 3.634033203125, 3.717041015625, 3.717041015625, 3.75091552734375, 3.75091552734375, 3.7884521484375, 3.7884521484375, 3.7884521484375, 3.7884521484375, 3.88336181640625, 3.88336181640625, 3.91204833984375, 3.91204833984375, 3.9794921875, 3.9794921875, 3.9794921875, 3.9794921875, 3.9599609375, 3.9599609375, 3.8525390625, 3.8525390625, 3.8360595703125, 3.8360595703125, 3.885498046875, 3.885498046875, 3.885498046875, 3.885498046875, 3.8922119140625, 3.8922119140625, 3.9141845703125, 3.9141845703125, 3.93829345703125, 3.93829345703125, 3.93218994140625, 3.93218994140625, 3.93218994140625, 3.93218994140625, 3.9501953125, 3.9501953125, 4.0008544921875, 4.0008544921875, 3.98834228515625, 3.98834228515625, 3.9544677734375, 3.9544677734375, 3.9544677734375, 3.9544677734375, 3.98895263671875, 3.98895263671875, 3.97705078125, 3.97705078125, 3.900146484375, 3.900146484375, 3.900146484375, 3.900146484375, 3.89251708984375, 3.89251708984375, 3.89801025390625, 3.89801025390625, 3.858642578125, 3.858642578125, 3.858642578125, 3.858642578125, 3.85498046875, 3.85498046875, 3.83758544921875, 3.83758544921875, 3.812255859375, 3.812255859375, 3.812255859375, 3.812255859375, 3.7774658203125, 3.7774658203125, 3.7701416015625, 3.7701416015625, 3.76251220703125, 3.76251220703125, 3.76251220703125, 3.76251220703125, 3.85833740234375, 3.85833740234375, 3.87054443359375, 3.87054443359375, 3.868408203125, 3.868408203125, 3.8580322265625, 3.8580322265625, 3.8580322265625, 3.8580322265625, 3.8665771484375, 3.8665771484375, 3.8970947265625, 3.8970947265625, 3.922119140625, 3.922119140625, 3.922119140625, 3.922119140625, 3.90167236328125, 3.90167236328125, 3.90350341796875, 3.90350341796875, 3.9117431640625, 3.9117431640625, 3.89923095703125, 3.89923095703125, 3.89923095703125, 3.89923095703125, 3.90045166015625, 3.90045166015625, 3.9068603515625, 3.9068603515625, 3.9361572265625, 3.9361572265625, 3.9361572265625, 3.9361572265625, 3.9630126953125, 3.9630126953125, 3.93280029296875, 3.93280029296875, 3.93798828125, 3.93798828125]",0.30971195495483694,1.8241142072129897,accepted,3.7077075000852346,1.6763754999265075
pgACC-TUS-staircase,,1,2024-02-13_13h15.58.173,None,04,,,-0.0494384765625,4.802638462611607,5.071207682291667,5.040283203125,5.055745442708334,5.105183919270834,35,29,12,0,262,10,6,0,"[]",0.30971195495483694,-1.9711954954836948,rejected,1.3768557000439614,0
pgACC-TUS-staircase,,1,2024-02-13_13h15.58.173,None,04,,,-0.0494384765625,4.802638462611607,5.071207682291667,5.040283203125,5.055745442708334,5.105183919270834,36,12,26,12,274,6,9,6.598792756539234,"[0.02899169921875, 0.03265380859375, 0.03265380859375, 0.03753662109375, 0.0396728515625, 0.0396728515625, 0.0396728515625, 0.0408935546875, 0.048828125, 0.048828125, 0.05523681640625, 0.05859375, 0.05859375, 0.0640869140625, 0.06805419921875, 0.0750732421875, 0.0750732421875, 0.08544921875, 0.09918212890625, 0.107421875, 0.115966796875, 0.115966796875, 0.1666259765625, 0.233154296875, 0.2923583984375, 0.2923583984375, 0.43914794921875, 0.709228515625, 1.01898193359375, 1.309814453125, 1.309814453125, 1.61712646484375, 2.01446533203125, 2.24395751953125, 2.4407958984375, 2.4407958984375, 2.64801025390625, 2.72491455078125, 2.718505859375, 2.718505859375, 2.79327392578125, 2.9083251953125, 2.92083740234375, 2.92083740234375, 2.93731689453125, 3.00933837890625, 3.092041015625, 3.092041015625, 3.05999755859375, 3.05999755859375, 3.05999755859375, 3.05999755859375, 2.9534912109375, 2.9534912109375, 3.01239013671875, 3.01239013671875, 3.10577392578125, 3.10577392578125, 3.1170654296875, 3.1170654296875, 3.1573486328125, 3.1573486328125, 3.1573486328125, 3.1573486328125, 3.24432373046875, 3.24432373046875, 3.27545166015625, 3.27545166015625, 3.30657958984375, 3.30657958984375, 3.43170166015625, 3.43170166015625, 3.43170166015625, 3.43170166015625, 3.5107421875, 3.5107421875, 3.52142333984375, 3.52142333984375, 3.4527587890625, 3.4527587890625, 3.4527587890625, 3.4527587890625, 3.448486328125, 3.448486328125, 3.50067138671875, 3.50067138671875, 3.54095458984375, 3.54095458984375, 3.58306884765625, 3.58306884765625, 3.58306884765625, 3.58306884765625, 3.54400634765625, 3.54400634765625, 3.57452392578125, 3.57452392578125, 3.5791015625, 3.5791015625, 3.5791015625, 3.5791015625, 3.56292724609375, 3.56292724609375, 3.5260009765625, 3.5260009765625, 3.47198486328125, 3.47198486328125, 3.47198486328125, 3.47198486328125, 3.45672607421875, 3.45672607421875, 3.51776123046875, 3.51776123046875, 3.4796142578125, 3.4796142578125, 3.450927734375, 3.450927734375, 3.450927734375, 3.450927734375, 3.3917236328125, 3.3917236328125, 3.3892822265625, 3.3892822265625, 3.3892822265625, 3.3892822265625, 3.38623046875, 3.38623046875, 3.37249755859375, 3.37249755859375, 3.3740234375, 3.3740234375, 3.42864990234375, 3.42864990234375, 3.42864990234375, 3.42864990234375, 3.44390869140625, 3.44390869140625, 3.46588134765625, 3.46588134765625, 3.4735107421875, 3.4735107421875, 3.4735107421875, 3.4735107421875, 3.4014892578125, 3.4014892578125, 3.35784912109375, 3.35784912109375, 3.3734130859375, 3.3734130859375, 3.41156005859375, 3.41156005859375, 3.41156005859375, 3.41156005859375, 3.4063720703125, 3.4063720703125, 3.36669921875, 3.36669921875, 3.369140625, 3.369140625, 3.369140625, 3.369140625, 3.367919921875, 3.367919921875, 3.359375, 3.359375, 3.31756591796875, 3.31756591796875, 3.36761474609375, 3.36761474609375, 3.36761474609375, 3.36761474609375, 3.36700439453125, 3.36700439453125, 3.30230712890625, 3.30230712890625, 3.336181640625, 3.336181640625, 3.336181640625, 3.336181640625]",0.30971195495483694,0.8503696216258696,accepted,1.4128536998759955,1.8672514997888356
