expName,curec_ID,session_nr,date,end_date,participant,age,gender,gripper_baseline,max_effort_calibration_1,max_effort_calibration_2,max_effort_calibration_3,max_effort,max_effort_baseline_corrected,trial_count,reward_offer,next_reward_offer,reward_earned,total_reward,effort_offer,next_effort_offer,effort_expended,effort_trace,estimated_k,estimated_net_value,participant_response,participant_choice_response_time,participant_effort_response_time
pgACC-TUS-staircase,,1,2024-02-13_15h14.59.819,None,05,,,-0.06103515625,5.44842529296875,5.601704915364583,5.44854736328125,5.525126139322916,5.586161295572916,0,18,None,0,0,6,None,None,"[0.22216796875, 0.20782470703125, 0.19073486328125, 0.16021728515625, 0.10894775390625, 0.08880615234375, 0.0543212890625, 0.03204345703125, 0.03265380859375, 0.03173828125, 0.02166748046875, 0.0079345703125, 0.0067138671875, 0.01434326171875, 0.02838134765625, 0.03936767578125, 0.04791259765625, 0.0494384765625, 0.03143310546875, 0.0030517578125, -0.0042724609375, 0.01220703125, 0.05462646484375, 0.10528564453125, 0.13397216796875, 0.1544189453125, 0.22247314453125, 0.24200439453125, 0.1483154296875, 0.08941650390625, 0.07904052734375, 0.091552734375, 0.09674072265625, 0.0927734375, 0.2020263671875, 1.553955078125, 3.680419921875, 4.15496826171875, 3.95050048828125, 4.41558837890625, 4.7247314453125, 4.92156982421875, 5.1947021484375, 5.35980224609375, 5.43487548828125, 5.4705810546875, 5.504150390625, 5.47271728515625, 0.103759765625, 0.0860595703125, 0.09124755859375, 0.3936767578125, 3.1329345703125, 4.46746826171875, 4.58160400390625, 4.991455078125, 5.35491943359375, 5.47332763671875, 5.5780029296875, 5.6646728515625, 5.56243896484375, 5.57586669921875, 5.579833984375, 5.533447265625, 5.4986572265625, 5.5194091796875, 5.5078125, 5.5133056640625, 5.3662109375, 5.203857421875, 5.1031494140625, 4.9481201171875, 5.0164794921875, 5.0152587890625, 4.11773681640625, 0.8868408203125, 0.115966796875, 0.11810302734375, 0.113525390625, 0.10040283203125, 0.09063720703125, 0.06500244140625, 0.0518798828125, 0.08392333984375, 0.0927734375, 0.09429931640625, 0.06195068359375, 0.0677490234375, 1.26373291015625, 3.37158203125, 4.15008544921875, 4.249267578125, 4.5892333984375, 4.80712890625, 5.16815185546875, 5.3607177734375, 5.29296875, 5.3680419921875, 5.4638671875, 5.55145263671875, 5.4815673828125, 5.3778076171875, 5.2581787109375, 5.18646240234375, 5.1416015625, 4.4195556640625, 2.5860595703125, 0.75103759765625, 0.33172607421875, 0.17059326171875]",0.5,0.0,None,None,None
pgACC-TUS-staircase,,1,2024-02-13_15h14.59.819,None,05,,,-0.06103515625,5.44842529296875,5.601704915364583,5.44854736328125,5.525126139322916,5.586161295572916,1,18,4,18,18,6,3,7.058927499622567,"[-0.00946044921875, -0.009765625, -0.01007080078125, -0.0103759765625, -0.0103759765625, -0.01068115234375, -0.01007080078125, -0.01007080078125, -0.01068115234375, -0.01007080078125, -0.01007080078125, -0.01007080078125, -0.0103759765625, -0.00946044921875, -0.009765625, -0.009765625, -0.01007080078125, -0.01007080078125, -0.01068115234375, -0.01007080078125, -0.01007080078125, -0.0103759765625, -0.01007080078125, -0.01007080078125, -0.01007080078125, -0.009765625, -0.0103759765625, -0.00946044921875, -0.00885009765625, -0.00885009765625, -0.01007080078125, -0.009765625, -0.0091552734375, -0.0091552734375, -0.009765625, -0.00885009765625, -0.009765625, -0.00885009765625, -0.009765625, -0.009765625, -0.00885009765625, -0.009765625, -0.009765625, -0.01007080078125, -0.01007080078125, -0.00946044921875, -0.0091552734375, -0.0079345703125, -0.00823974609375, -0.00823974609375, -0.0067138671875, -0.00579833984375, -0.00335693359375, -0.00335693359375, -0.001220703125, 0.00213623046875, 0.00823974609375, 0.0189208984375, 0.0189208984375, 0.035400390625, 0.064697265625, 0.113525390625, 0.113525390625, 0.2545166015625, 0.4901123046875, 0.97259521484375, 0.97259521484375, 1.39556884765625, 1.88507080078125, 2.2540283203125, 2.2540283203125, 2.6800537109375, 2.91290283203125, 3.1072998046875, 3.253173828125, 3.253173828125, 3.355712890625, 3.355712890625, 3.4912109375, 3.4912109375, 3.583984375, 3.583984375, 3.583984375, 3.583984375, 3.62579345703125, 3.62579345703125, 3.58856201171875, 3.58856201171875, 3.5455322265625, 3.5455322265625, 3.624267578125, 3.624267578125, 3.624267578125, 3.624267578125, 3.66241455078125, 3.66241455078125, 3.6346435546875, 3.6346435546875, 3.546142578125, 3.546142578125, 3.546142578125, 3.546142578125, 3.52325439453125, 3.52325439453125, 3.52752685546875, 3.52752685546875, 3.61083984375, 3.61083984375, 3.6517333984375, 3.6517333984375, 3.6517333984375, 3.6517333984375, 3.665771484375, 3.665771484375, 3.68194580078125, 3.68194580078125, 3.704833984375, 3.704833984375, 3.704833984375, 3.704833984375, 3.72406005859375, 3.72406005859375, 3.68316650390625, 3.68316650390625, 3.58795166015625, 3.58795166015625, 3.45489501953125, 3.45489501953125, 3.45489501953125, 3.45489501953125, 3.441162109375, 3.441162109375, 3.4979248046875, 3.4979248046875, 3.48388671875, 3.48388671875, 3.4576416015625, 3.4576416015625, 3.4576416015625, 3.4576416015625, 3.4051513671875, 3.4051513671875, 3.387451171875, 3.387451171875, 3.47991943359375, 3.47991943359375, 3.51043701171875, 3.51043701171875, 3.51043701171875, 3.51043701171875, 3.48876953125, 3.48876953125, 3.4539794921875, 3.4539794921875, 3.49212646484375, 3.49212646484375, 3.49212646484375, 3.49212646484375, 3.53759765625, 3.53759765625, 3.6187744140625, 3.6187744140625, 3.63800048828125, 3.63800048828125, 3.634033203125, 3.634033203125, 3.634033203125, 3.634033203125, 3.6016845703125, 3.6016845703125, 3.616943359375, 3.616943359375, 3.69903564453125, 3.69903564453125, 3.69903564453125, 3.69903564453125, 3.74481201171875, 3.74481201171875, 3.77471923828125, 3.77471923828125, 3.839111328125, 3.839111328125, 3.839111328125, 3.839111328125, 3.84185791015625, 3.84185791015625, 3.837890625, 3.837890625, 3.83636474609375, 3.83636474609375, 3.83941650390625, 3.83941650390625, 3.83941650390625, 3.83941650390625, 3.88458251953125, 3.88458251953125, 3.900146484375, 3.900146484375]",0.5,0.0,accepted,3.310013100039214,2.253554299939424
pgACC-TUS-staircase,,1,2024-02-13_15h14.59.819,None,05,,,-0.06103515625,5.44842529296875,5.601704915364583,5.44854736328125,5.525126139322916,5.586161295572916,2,4,14,4,22,3,6,3.5394059012192027,"[-0.00518798828125, -0.0048828125, -0.0048828125, -0.0042724609375, -0.0042724609375, -0.0042724609375, -0.0042724609375, -0.00457763671875, -0.00457763671875, -0.0048828125, -0.00457763671875, -0.00457763671875, -0.0048828125, -0.0048828125, -0.00579833984375, -0.00579833984375, -0.00640869140625, -0.006103515625, -0.00640869140625, -0.00640869140625, -0.00640869140625, -0.0054931640625, -0.00640869140625, -0.00640869140625, -0.00640869140625, -0.0054931640625, -0.0054931640625, -0.00579833984375, -0.00579833984375, -0.00579833984375, -0.00640869140625, -0.0067138671875, -0.00640869140625, -0.00640869140625, -0.0048828125, -0.006103515625, -0.0067138671875, -0.0067138671875, -0.0067138671875, -0.00640869140625, -0.00640869140625, -0.006103515625, -0.00579833984375, -0.00579833984375, -0.0054931640625, -0.006103515625, -0.00640869140625, -0.006103515625, -0.006103515625, -0.006103515625, -0.0054931640625, -0.00518798828125, -0.006103515625, -0.006103515625, -0.0042724609375, 0.00244140625, 0.03204345703125, 0.09124755859375, 0.09124755859375, 0.184326171875, 0.308837890625, 0.4754638671875, 0.5950927734375, 0.5950927734375, 0.71044921875, 0.89691162109375, 0.9503173828125, 0.9503173828125, 1.0821533203125, 1.1627197265625, 1.28509521484375, 1.38153076171875, 1.38153076171875, 1.4166259765625, 1.51336669921875, 1.6387939453125, 1.6387939453125, 1.73187255859375, 1.73187255859375, 1.73614501953125, 1.73614501953125, 1.78924560546875, 1.78924560546875, 1.83380126953125, 1.83380126953125, 1.83380126953125, 1.83380126953125, 1.87530517578125, 1.87530517578125, 1.9622802734375, 1.9622802734375, 1.98089599609375, 1.98089599609375, 1.98089599609375, 1.98089599609375, 1.9189453125, 1.9189453125, 1.85394287109375, 1.85394287109375, 1.844482421875, 1.844482421875, 1.844482421875, 1.844482421875, 1.8231201171875, 1.8231201171875, 1.8072509765625, 1.8072509765625, 1.783447265625, 1.783447265625, 1.78802490234375, 1.78802490234375, 1.78802490234375, 1.78802490234375, 1.7486572265625, 1.7486572265625, 1.73187255859375, 1.73187255859375, 1.72119140625, 1.72119140625, 1.66046142578125, 1.66046142578125, 1.66046142578125, 1.66046142578125, 1.64642333984375, 1.66259765625, 1.66259765625, 1.7047119140625, 1.7047119140625, 1.75506591796875, 1.75506591796875, 1.75506591796875, 1.75506591796875, 1.822509765625, 1.822509765625, 1.83563232421875, 1.83563232421875, 1.84844970703125, 1.84844970703125, 1.84844970703125, 1.84844970703125, 1.8853759765625, 1.8853759765625, 1.925048828125, 1.925048828125, 1.92657470703125, 1.92657470703125, 1.92657470703125, 1.92657470703125, 1.93939208984375, 1.93939208984375, 1.94427490234375, 1.94427490234375, 1.96044921875, 1.96044921875, 1.95709228515625, 1.95709228515625, 1.95709228515625, 1.95709228515625, 1.92626953125, 1.92626953125, 1.89239501953125, 1.89239501953125, 1.8896484375, 1.8896484375, 1.8896484375, 1.8896484375, 1.86614990234375, 1.86614990234375, 1.85394287109375, 1.85394287109375, 1.86920166015625, 1.86920166015625, 1.88262939453125, 1.88262939453125, 1.90460205078125, 1.90460205078125, 1.90460205078125, 1.90460205078125, 1.9122314453125, 1.9122314453125, 1.905517578125, 1.905517578125, 1.8975830078125, 1.8975830078125, 1.8975830078125, 1.8975830078125, 1.90185546875, 1.90185546875, 1.91070556640625, 1.91070556640625, 1.94732666015625, 1.94732666015625, 1.976318359375, 1.976318359375, 1.976318359375, 1.976318359375, 2.027587890625, 2.027587890625, 2.0330810546875, 2.0330810546875, 2.03216552734375, 2.03216552734375, 2.0001220703125, 2.0001220703125, 2.0001220703125, 2.0001220703125, 1.94610595703125, 1.94610595703125, 1.92626953125, 1.92626953125, 1.88751220703125, 1.88751220703125, 1.88751220703125, 1.88751220703125, 1.86309814453125, 1.86309814453125, 1.86767578125, 1.86767578125, 1.8841552734375, 1.8841552734375, 1.9049072265625, 1.9049072265625, 1.9049072265625, 1.9049072265625, 1.95343017578125, 1.95343017578125, 1.9580078125, 1.9580078125, 1.9525146484375, 1.9525146484375, 1.95281982421875, 1.95281982421875, 1.95281982421875, 1.95281982421875, 1.98486328125, 1.98486328125, 2.01171875, 2.01171875, 2.01171875, 2.01171875, 1.971435546875, 1.971435546875, 1.93695068359375, 1.93695068359375, 1.94061279296875, 1.94061279296875, 1.95556640625, 1.95556640625]",0.4067997598160582,-0.5,accepted,2.8946584998629987,2.683337999973446
pgACC-TUS-staircase,,1,2024-02-13_15h14.59.819,None,05,,,-0.06103515625,5.44842529296875,5.601704915364583,5.44854736328125,5.525126139322916,5.586161295572916,3,14,17,14,36,6,7,7.130731926457539,"[-0.00335693359375, -0.0018310546875, -0.0018310546875, -0.0030517578125, -0.00457763671875, -0.00457763671875, -0.00457763671875, -0.00640869140625, -0.00640869140625, -0.00732421875, -0.0079345703125, -0.0079345703125, -0.008544921875, -0.0079345703125, -0.00823974609375, -0.00823974609375, -0.0079345703125, -0.00640869140625, -0.00701904296875, -0.00640869140625, -0.00640869140625, -0.00579833984375, -0.0042724609375, -0.0018310546875, -0.00152587890625, -0.00152587890625, -0.00091552734375, 0.0, -0.00091552734375, -0.00091552734375, -0.00091552734375, 0.0006103515625, 0.00335693359375, 0.00335693359375, 0.00274658203125, 0.0030517578125, 0.00244140625, 0.00152587890625, 0.00152587890625, 0.0018310546875, 0.00030517578125, 0.00030517578125, 0.0, 0.0, -0.00091552734375, -0.00091552734375, -0.001220703125, -0.0006103515625, -0.0006103515625, 0.00396728515625, 0.042724609375, 0.13214111328125, 0.13214111328125, 0.28289794921875, 0.55633544921875, 0.958251953125, 1.3067626953125, 1.3067626953125, 1.63726806640625, 2.01751708984375, 2.35382080078125, 2.66082763671875, 2.66082763671875, 2.7630615234375, 2.935791015625, 3.1683349609375, 3.1683349609375, 3.29925537109375, 3.34014892578125, 3.34014892578125, 3.3941650390625, 3.3941650390625, 3.45367431640625, 3.45367431640625, 3.45367431640625, 3.45367431640625, 3.51837158203125, 3.51837158203125, 3.57818603515625, 3.57818603515625, 3.59771728515625, 3.59771728515625, 3.59619140625, 3.59619140625, 3.59619140625, 3.59619140625, 3.64288330078125, 3.64288330078125, 3.68194580078125, 3.68194580078125, 3.746337890625, 3.746337890625, 3.746337890625, 3.746337890625, 3.72467041015625, 3.72467041015625, 3.7274169921875, 3.7274169921875, 3.865966796875, 3.865966796875, 3.865966796875, 3.865966796875, 3.92913818359375, 3.92913818359375, 3.90228271484375, 3.90228271484375, 3.93829345703125, 3.93829345703125, 3.94378662109375, 3.94378662109375, 3.94378662109375, 3.94378662109375, 3.9630126953125, 3.9630126953125, 3.9874267578125, 3.9874267578125, 3.97491455078125, 3.97491455078125, 3.97491455078125, 3.97491455078125, 3.939208984375, 3.939208984375, 3.96331787109375, 3.96331787109375, 4.02923583984375, 4.02923583984375, 4.03778076171875, 4.03778076171875, 4.03778076171875, 4.03778076171875, 4.07745361328125, 4.07745361328125, 4.08233642578125, 4.08233642578125, 4.09759521484375, 4.09759521484375, 4.09759521484375, 4.09759521484375, 4.13055419921875, 4.13055419921875, 4.1326904296875, 4.1326904296875, 4.11865234375, 4.11865234375, 4.09393310546875, 4.09393310546875, 4.09393310546875, 4.09393310546875, 3.9862060546875, 3.9862060546875, 3.96881103515625, 3.96881103515625, 3.96453857421875, 3.96453857421875, 3.95721435546875, 3.95721435546875, 3.95721435546875, 3.95721435546875, 3.890380859375, 3.890380859375, 3.79364013671875, 3.79364013671875, 3.78387451171875, 3.78387451171875, 3.78204345703125, 3.78204345703125, 3.78204345703125, 3.78204345703125, 3.76068115234375, 3.76068115234375, 3.75396728515625, 3.75396728515625, 3.76495361328125, 3.76495361328125, 3.76495361328125, 3.76495361328125, 3.7872314453125, 3.7872314453125, 3.83941650390625, 3.83941650390625, 3.83575439453125, 3.83575439453125, 3.8214111328125, 3.8214111328125, 3.8214111328125, 3.8214111328125, 3.856201171875, 3.856201171875, 3.905029296875, 3.905029296875, 3.9398193359375, 3.9398193359375]",0.3230831658333711,-0.6447913533780962,accepted,2.481000700034201,2.146118599921465
pgACC-TUS-staircase,,1,2024-02-13_15h14.59.819,None,05,,,-0.06103515625,5.44842529296875,5.601704915364583,5.44854736328125,5.525126139322916,5.586161295572916,4,17,13,17,53,7,6,8.087940170342195,"[-0.00091552734375, -0.00152587890625, -0.00244140625, -0.00244140625, -0.0030517578125, -0.00274658203125, -0.00274658203125, -0.003662109375, -0.00274658203125, -0.00274658203125, -0.00213623046875, -0.0030517578125, -0.00274658203125, -0.00274658203125, -0.00213623046875, -0.0018310546875, -0.0018310546875, -0.0018310546875, -0.00030517578125, 0.00030517578125, 0.0006103515625, 0.0006103515625, 0.0006103515625, -0.00030517578125, -0.0018310546875, -0.00152587890625, -0.00152587890625, -0.00152587890625, -0.0018310546875, -0.00152587890625, -0.0018310546875, -0.00152587890625, -0.00152587890625, -0.00152587890625, -0.00213623046875, -0.00213623046875, -0.00213623046875, -0.00152587890625, -0.00213623046875, -0.0030517578125, -0.0030517578125, -0.0030517578125, -0.003662109375, -0.003662109375, -0.00335693359375, -0.00335693359375, -0.00335693359375, -0.003662109375, -0.0030517578125, -0.00335693359375, -0.00335693359375, -0.001220703125, 0.0006103515625, 0.00152587890625, 0.00396728515625, 0.00396728515625, 0.0079345703125, 0.01739501953125, 0.04486083984375, 0.07293701171875, 0.07293701171875, 0.118408203125, 0.25848388671875, 0.49468994140625, 0.49468994140625, 0.90423583984375, 1.27716064453125, 1.66473388671875, 1.66473388671875, 1.9976806640625, 2.2747802734375, 2.66632080078125, 2.91351318359375, 2.91351318359375, 3.118896484375, 3.28033447265625, 3.51470947265625, 3.62884521484375, 3.62884521484375, 3.66241455078125, 3.78326416015625, 3.9068603515625, 3.9068603515625, 3.9068603515625, 3.9068603515625, 3.96820068359375, 3.96820068359375, 4.10736083984375, 4.10736083984375, 4.2144775390625, 4.2144775390625, 4.2742919921875, 4.2742919921875, 4.2742919921875, 4.2742919921875, 4.30572509765625, 4.30572509765625, 4.3560791015625, 4.3560791015625, 4.32952880859375, 4.32952880859375, 4.29229736328125, 4.29229736328125, 4.29229736328125, 4.29229736328125, 4.29168701171875, 4.29168701171875, 4.293212890625, 4.293212890625, 4.23858642578125, 4.23858642578125, 4.23858642578125, 4.23858642578125, 4.19525146484375, 4.19525146484375, 4.1094970703125, 4.1094970703125, 4.12506103515625, 4.12506103515625, 4.12506103515625, 4.12506103515625, 4.146728515625, 4.146728515625, 4.13665771484375, 4.13665771484375, 4.10980224609375, 4.10980224609375, 4.16961669921875, 4.16961669921875, 4.16961669921875, 4.16961669921875, 4.2059326171875, 4.2059326171875, 4.23248291015625, 4.23248291015625, 4.244384765625, 4.244384765625, 4.2547607421875, 4.2547607421875, 4.2547607421875, 4.2547607421875, 4.26513671875, 4.26513671875, 4.29840087890625, 4.29840087890625, 4.34661865234375, 4.34661865234375, 4.34661865234375, 4.34661865234375, 4.3695068359375, 4.3695068359375, 4.41070556640625, 4.41070556640625, 4.4427490234375, 4.4427490234375, 4.4427490234375, 4.4427490234375, 4.4384765625, 4.4384765625, 4.442138671875, 4.442138671875, 4.46014404296875, 4.46014404296875, 4.46075439453125, 4.46075439453125, 4.46075439453125, 4.46075439453125, 4.4354248046875, 4.4354248046875, 4.4158935546875, 4.4158935546875, 4.41436767578125, 4.41436767578125, 4.42291259765625, 4.42291259765625, 4.42291259765625, 4.42291259765625, 4.44488525390625, 4.44488525390625, 4.44732666015625, 4.44732666015625, 4.46807861328125, 4.46807861328125, 4.46807861328125, 4.46807861328125, 4.48211669921875, 4.48211669921875, 4.490966796875, 4.490966796875, 4.4989013671875, 4.4989013671875, 4.4415283203125, 4.4415283203125, 4.4415283203125, 4.4415283203125, 4.46014404296875, 4.46014404296875, 4.44580078125, 4.44580078125, 4.464111328125, 4.464111328125, 4.46868896484375, 4.46868896484375]",0.3230831658333711,1.1689248741648157,accepted,3.293655800167471,2.331743699964136
pgACC-TUS-staircase,,1,2024-02-13_15h14.59.819,None,05,,,-0.06103515625,5.44842529296875,5.601704915364583,5.44854736328125,5.525126139322916,5.586161295572916,5,13,19,0,53,6,7,0,"[]",0.3952179178778193,1.3690060299986406,rejected,4.130707199918106,0
pgACC-TUS-staircase,,1,2024-02-13_15h14.59.819,None,05,,,-0.06103515625,5.44842529296875,5.601704915364583,5.44854736328125,5.525126139322916,5.586161295572916,6,19,7,19,72,7,5,7.513504755662424,"[-0.00701904296875, -0.00457763671875, -0.00457763671875, -0.00457763671875, -0.0048828125, -0.003662109375, -0.00274658203125, -0.00274658203125, -0.00244140625, -0.00152587890625, -0.00152587890625, -0.00274658203125, -0.0006103515625, -0.0006103515625, 0.001220703125, 0.003662109375, 0.00396728515625, 0.00396728515625, 0.00244140625, 0.00335693359375, 0.00701904296875, 0.00701904296875, 0.015869140625, 0.01800537109375, 0.0225830078125, 0.0225830078125, 0.0225830078125, 0.02166748046875, 0.02197265625, 0.02197265625, 0.0213623046875, 0.023193359375, 0.02777099609375, 0.02777099609375, 0.029296875, 0.029296875, 0.03021240234375, 0.03631591796875, 0.03631591796875, 0.04364013671875, 0.0469970703125, 0.05096435546875, 0.05096435546875, 0.06439208984375, 0.0927734375, 0.189208984375, 0.40985107421875, 0.40985107421875, 0.9002685546875, 1.48468017578125, 1.95281982421875, 1.95281982421875, 2.2320556640625, 2.46856689453125, 2.70263671875, 2.70263671875, 3.03741455078125, 3.27606201171875, 3.3734130859375, 3.46893310546875, 3.46893310546875, 3.60870361328125, 3.74298095703125, 3.83087158203125, 3.85772705078125, 3.85772705078125, 3.9263916015625, 3.9263916015625, 4.088134765625, 4.088134765625, 4.18365478515625, 4.18365478515625, 4.18365478515625, 4.18365478515625, 4.25872802734375, 4.25872802734375, 4.26544189453125, 4.26544189453125, 4.298095703125, 4.298095703125, 4.3096923828125, 4.3096923828125, 4.3096923828125, 4.3096923828125, 4.33074951171875, 4.33074951171875, 4.3524169921875, 4.3524169921875, 4.39178466796875, 4.39178466796875, 4.39178466796875, 4.39178466796875, 4.44732666015625, 4.44732666015625, 4.45953369140625, 4.45953369140625, 4.47509765625, 4.47509765625, 4.47509765625, 4.47509765625, 4.54986572265625, 4.54986572265625, 4.5770263671875, 4.5770263671875, 4.561767578125, 4.561767578125, 4.5562744140625, 4.5562744140625, 4.5562744140625, 4.5562744140625, 4.4873046875, 4.4873046875, 4.48211669921875, 4.48211669921875, 4.49462890625, 4.49462890625, 4.55596923828125, 4.55596923828125, 4.55596923828125, 4.55596923828125, 4.5623779296875, 4.5623779296875, 4.55047607421875, 4.55047607421875, 4.53643798828125, 4.53643798828125, 4.45220947265625, 4.45220947265625, 4.45220947265625, 4.45220947265625, 4.4659423828125, 4.4659423828125, 4.47845458984375, 4.47845458984375, 4.46319580078125, 4.46319580078125, 4.46319580078125, 4.46319580078125, 4.43115234375, 4.43115234375, 4.3853759765625, 4.3853759765625, 4.33685302734375, 4.33685302734375, 4.3402099609375, 4.3402099609375, 4.3402099609375, 4.3402099609375, 4.371337890625, 4.371337890625, 4.35302734375, 4.35302734375, 4.310302734375, 4.310302734375, 4.2889404296875, 4.2889404296875, 4.2889404296875, 4.2889404296875, 4.266357421875, 4.266357421875, 4.256591796875, 4.256591796875, 4.2303466796875, 4.2303466796875, 4.2303466796875, 4.2303466796875, 4.168701171875, 4.168701171875, 4.13726806640625, 4.13726806640625, 4.17510986328125, 4.17510986328125, 4.19647216796875, 4.19647216796875, 4.19647216796875, 4.19647216796875, 4.2059326171875, 4.2059326171875, 4.2230224609375, 4.2230224609375, 4.20440673828125, 4.20440673828125, 4.20440673828125, 4.20440673828125, 4.23065185546875, 4.23065185546875, 4.2266845703125, 4.2266845703125, 4.15130615234375, 4.15130615234375]",0.3269499758808065,-0.36567797601314567,accepted,1.7446356997825205,2.096778600011021
pgACC-TUS-staircase,,1,2024-02-13_15h14.59.819,None,05,,,-0.06103515625,5.44842529296875,5.601704915364583,5.44854736328125,5.525126139322916,5.586161295572916,7,7,11,0,72,5,6,0,"[]",0.3269499758808065,-1.1737493970201616,rejected,3.306517100194469,0
pgACC-TUS-staircase,,1,2024-02-13_15h14.59.819,None,05,,,-0.06103515625,5.44842529296875,5.601704915364583,5.44854736328125,5.525126139322916,5.586161295572916,8,11,19,11,83,6,9,6.825839283281353,"[-0.0103759765625, -0.01068115234375, -0.0091552734375, -0.0091552734375, -0.0091552734375, -0.00946044921875, -0.009765625, -0.009765625, -0.00946044921875, -0.00946044921875, -0.00946044921875, -0.0103759765625, -0.0103759765625, -0.01007080078125, -0.01007080078125, -0.0091552734375, -0.00885009765625, -0.0079345703125, -0.0079345703125, -0.00823974609375, -0.008544921875, -0.0079345703125, -0.008544921875, -0.008544921875, -0.00823974609375, -0.0079345703125, -0.00885009765625, -0.00885009765625, -0.009765625, -0.0079345703125, -0.00762939453125, -0.0079345703125, -0.0079345703125, -0.00732421875, -0.00701904296875, -0.0067138671875, -0.0067138671875, -0.006103515625, -0.0018310546875, 0.0006103515625, 0.0048828125, 0.0048828125, 0.01220703125, 0.0665283203125, 0.15594482421875, 0.15594482421875, 0.42144775390625, 0.81634521484375, 1.2176513671875, 1.48468017578125, 1.48468017578125, 1.6900634765625, 1.89910888671875, 2.08892822265625, 2.08892822265625, 2.23175048828125, 2.388916015625, 2.5750732421875, 2.5750732421875, 2.672119140625, 2.70263671875, 2.7337646484375, 2.8997802734375, 2.8997802734375, 2.97576904296875, 3.02001953125, 3.07342529296875, 3.07342529296875, 3.1048583984375, 3.15887451171875, 3.1964111328125, 3.18817138671875, 3.18817138671875, 3.24951171875, 3.3197021484375, 3.3197021484375, 3.43719482421875, 3.43719482421875, 3.51715087890625, 3.51715087890625, 3.51715087890625, 3.51715087890625, 3.690185546875, 3.690185546875, 3.68072509765625, 3.68072509765625, 3.59649658203125, 3.59649658203125, 3.5113525390625, 3.5113525390625, 3.5113525390625, 3.5113525390625, 3.56597900390625, 3.56597900390625, 3.692626953125, 3.692626953125, 3.8006591796875, 3.8006591796875, 3.8006591796875, 3.8006591796875, 3.94287109375, 3.94287109375, 4.09393310546875, 4.09393310546875, 4.0606689453125, 4.0606689453125, 4.0692138671875, 4.0692138671875, 4.0692138671875, 4.0692138671875, 4.11651611328125, 4.11651611328125, 4.141845703125, 4.141845703125, 4.1363525390625, 4.1363525390625, 4.11041259765625, 4.11041259765625, 4.11041259765625, 4.11041259765625, 4.13360595703125, 4.13360595703125, 4.18731689453125, 4.18731689453125, 4.20379638671875, 4.20379638671875, 4.17938232421875, 4.17938232421875, 4.17938232421875, 4.17938232421875, 4.17938232421875, 4.17938232421875, 4.239501953125, 4.239501953125, 4.232177734375, 4.232177734375, 4.232177734375, 4.232177734375, 4.17694091796875, 4.17694091796875, 4.132080078125, 4.132080078125, 4.11376953125, 4.11376953125, 4.11376953125, 4.11376953125, 4.10614013671875, 4.10614013671875, 4.10400390625, 4.10400390625, 4.09759521484375, 4.09759521484375, 4.0625, 4.0625, 4.0625, 4.0625, 3.9398193359375, 3.9398193359375, 3.86199951171875, 3.86199951171875, 3.83758544921875, 3.83758544921875, 3.83758544921875, 3.83758544921875, 3.8226318359375, 3.8226318359375, 3.83270263671875, 3.83270263671875, 3.8128662109375, 3.8128662109375, 3.78936767578125, 3.78936767578125, 3.78936767578125, 3.78936767578125, 3.81805419921875, 3.81805419921875, 3.78875732421875, 3.78875732421875, 3.76007080078125, 3.76007080078125, 3.72955322265625, 3.72955322265625, 3.72955322265625, 3.72955322265625, 3.6932373046875, 3.6932373046875, 3.71826171875, 3.71826171875, 3.75640869140625, 3.75640869140625, 3.7408447265625, 3.7408447265625, 3.7408447265625, 3.7408447265625, 3.7713623046875, 3.7713623046875]",0.26439511716716957,-0.7701991317090329,accepted,1.8182896000798792,2.222008900018409
pgACC-TUS-staircase,,1,2024-02-13_15h14.59.819,None,05,,,-0.06103515625,5.44842529296875,5.601704915364583,5.44854736328125,5.525126139322916,5.586161295572916,9,19,11,-1,82,9,7,0,"[-0.0042724609375, -0.00640869140625, -0.0067138671875, -0.0079345703125, -0.0079345703125, -0.008544921875, -0.00946044921875, -0.00946044921875, -0.01190185546875, -0.01190185546875, -0.013427734375, -0.01373291015625, -0.01373291015625, -0.0140380859375, -0.0146484375, -0.0146484375, -0.0152587890625, -0.0152587890625, -0.01495361328125, -0.01312255859375, -0.010986328125, -0.010986328125, -0.00640869140625, -0.001220703125, 0.0067138671875, 0.0213623046875, 0.0213623046875, 0.04913330078125, 0.07598876953125, 0.09246826171875, 0.09246826171875, 0.1513671875, 0.34271240234375, 0.750732421875, 1.35528564453125, 1.8121337890625, 1.8121337890625, 2.1954345703125, 2.51220703125, 2.82745361328125, 2.82745361328125, 3.13751220703125, 3.369140625, 3.5272216796875, 3.64044189453125, 3.64044189453125, 3.68621826171875, 3.8226318359375, 3.90655517578125, 3.90655517578125, 3.897705078125, 3.91571044921875, 3.96209716796875, 4.06646728515625, 4.06646728515625, 4.08660888671875, 4.0814208984375, 4.1229248046875, 4.12200927734375, 4.12200927734375, 4.1168212890625, 4.2022705078125, 4.26177978515625, 4.26177978515625, 4.3133544921875, 4.40460205078125, 4.4281005859375, 4.41558837890625, 4.41558837890625, 4.42169189453125, 4.42535400390625, 4.42138671875, 4.42138671875, 4.41192626953125, 4.3896484375, 4.32159423828125, 4.2938232421875, 4.2938232421875, 4.36798095703125, 4.40521240234375, 4.432373046875, 4.432373046875, 4.4622802734375, 4.43511962890625, 4.48272705078125, 4.5074462890625, 4.5074462890625, 4.483642578125, 4.410400390625, 4.35516357421875, 4.3072509765625, 4.3072509765625, 4.33685302734375, 4.295654296875, 4.21142578125, 4.21142578125, 4.18121337890625, 4.1546630859375, 4.15191650390625, 4.14581298828125, 4.14581298828125, 4.1192626953125, 4.10369873046875, 4.1162109375, 4.1162109375, 4.1229248046875, 4.11285400390625, 4.107666015625, 4.07501220703125, 4.07501220703125, 4.06280517578125, 3.92547607421875, 3.773193359375, 3.773193359375, 3.71185302734375, 3.6517333984375, 3.6376953125, 3.60137939453125, 3.60137939453125, 3.564453125, 3.55499267578125, 3.5546875, 3.5833740234375, 3.5833740234375, 3.62457275390625, 3.59893798828125, 3.63616943359375, 3.63616943359375, 3.6590576171875, 3.63494873046875, 3.62640380859375, 3.59710693359375, 3.59710693359375, 3.55499267578125, 3.55560302734375, 3.57269287109375, 3.59405517578125, 3.59405517578125, 3.575439453125, 3.5711669921875, 3.634033203125, 3.634033203125, 3.6444091796875, 3.64288330078125, 3.6199951171875, 3.57147216796875, 3.57147216796875, 3.56842041015625, 3.59832763671875, 3.55560302734375, 3.55560302734375, 3.50128173828125, 3.48297119140625, 3.52874755859375, 3.52874755859375, 3.51593017578125, 3.50189208984375, 3.460693359375, 3.4210205078125, 3.4210205078125, 3.3837890625, 3.350830078125, 3.3709716796875, 3.3709716796875, 3.33648681640625, 3.30780029296875, 3.292236328125, 3.28582763671875, 3.28582763671875, 3.2794189453125, 3.25714111328125, 3.24493408203125, 3.24493408203125, 3.24676513671875, 3.251953125, 3.26446533203125, 3.26446533203125, 3.22540283203125, 3.1658935546875, 3.12896728515625, 3.11920166015625, 3.11920166015625, 3.10760498046875, 3.02581787109375, 2.9791259765625, 2.9791259765625, 2.9644775390625, 2.916259765625, 2.80792236328125, 2.80792236328125, 2.742919921875, 2.7227783203125, 2.72857666015625, 2.72857666015625, 2.79541015625, 2.8515625, 2.8521728515625, 2.8680419921875, 2.8680419921875, 2.947998046875, 2.9754638671875, 2.9754638671875, 3.109130859375, 3.1280517578125, 3.1298828125, 3.14239501953125, 3.14239501953125, 3.23272705078125, 3.25164794921875, 3.2171630859375, 3.2171630859375, 3.21990966796875, 3.25439453125, 3.287353515625, 3.3673095703125, 3.3673095703125, 3.46160888671875, 3.62579345703125, 3.64288330078125, 3.64288330078125, 3.66729736328125, 3.6993408203125, 3.75518798828125, 3.75518798828125, 3.80462646484375, 3.856201171875, 3.89923095703125, 3.92791748046875, 3.92791748046875, 3.95843505859375, 4.04266357421875, 4.09881591796875, 4.1162109375, 4.1162109375, 4.178466796875, 4.22515869140625, 4.2401123046875, 4.2401123046875, 4.29229736328125, 4.285888671875, 4.2718505859375, 4.2724609375, 4.2724609375, 4.26483154296875, 4.234619140625, 4.207763671875, 4.207763671875, 4.22760009765625, 4.23095703125, 4.23583984375, 4.2327880859375, 4.2327880859375, 4.2327880859375, 4.21478271484375, 4.2071533203125, 4.22027587890625, 4.22027587890625, 4.21478271484375, 4.19097900390625, 4.14031982421875, 4.11865234375, 4.11865234375, 4.12200927734375, 4.11407470703125, 4.06158447265625, 4.06219482421875, 4.06219482421875, 4.0887451171875, 4.09210205078125, 4.07867431640625, 4.08050537109375, 4.08050537109375, 4.085693359375, 4.0875244140625, 4.080810546875, 4.07623291015625, 4.07623291015625, 4.07196044921875, 3.961181640625, 3.93463134765625, 3.87115478515625, 3.87115478515625, 3.76068115234375, 3.6920166015625, 3.64715576171875, 3.612060546875, 3.612060546875, 3.46405029296875, 3.27056884765625, 2.95501708984375, 2.7008056640625, 2.7008056640625, 2.46307373046875, 2.08282470703125, 1.71051025390625, 1.71051025390625, 1.334228515625, 1.11175537109375, 0.9405517578125, 0.7763671875, 0.7763671875, 0.66192626953125, 0.5511474609375, 0.4608154296875, 0.4608154296875, 0.33111572265625, 0.27801513671875, 0.255126953125, 0.21392822265625, 0.21392822265625, 0.17364501953125, 0.13916015625, 0.11444091796875, 0.11444091796875, 0.09735107421875, 0.0830078125, 0.0640869140625, 0.04547119140625, 0.04547119140625, 0.02716064453125, 0.01800537109375, 0.01251220703125, 0.00762939453125, 0.00762939453125, 0.0048828125, 0.00335693359375, 0.0030517578125, 0.00732421875, 0.00732421875, 0.01739501953125, 0.03387451171875, 0.04058837890625, 0.04058837890625, 0.04547119140625, 0.0439453125, 0.03692626953125, 0.02838134765625, 0.02838134765625, 0.02716064453125, 0.0262451171875, 0.028076171875, 0.0439453125, 0.0439453125, 0.05584716796875, 0.0567626953125, 0.0616455078125, 0.0616455078125, 0.06866455078125, 0.0823974609375, 0.08148193359375, 0.093994140625, 0.093994140625, 0.10223388671875, 0.10345458984375, 0.10284423828125, 0.10284423828125, 0.10284423828125, 0.113525390625, 0.12725830078125, 0.13092041015625, 0.13092041015625, 0.1336669921875, 0.12969970703125, 0.1300048828125, 0.1300048828125, 0.1239013671875, 0.115966796875, 0.12908935546875, 0.13092041015625, 0.13092041015625, 0.1318359375, 0.1300048828125, 0.118408203125, 0.11474609375, 0.11474609375, 0.11444091796875, 0.11566162109375, 0.13397216796875, 0.167236328125, 0.167236328125, 0.2191162109375, 0.24383544921875, 0.2532958984375, 0.2532958984375, 0.24505615234375, 0.23834228515625, 0.21453857421875, 0.20599365234375, 0.20599365234375, 0.25421142578125, 0.284423828125, 0.35308837890625, 0.35308837890625, 0.57952880859375, 0.921630859375, 1.2860107421875, 1.6302490234375, 1.6302490234375, 1.97296142578125, 2.30499267578125, 2.52593994140625, 2.73406982421875, 2.73406982421875, 2.9522705078125, 3.0572509765625, 3.15765380859375, 3.15765380859375, 3.30047607421875, 3.433837890625, 3.4954833984375, 3.4954833984375, 3.55377197265625, 3.6236572265625, 3.7249755859375, 3.8580322265625, 3.8580322265625, 4.03594970703125, 4.15679931640625, 4.2333984375, 4.28741455078125, 4.28741455078125, 4.4140625, 4.4805908203125, 4.5404052734375, 4.5404052734375, 4.6136474609375, 4.693603515625, 4.737548828125, 4.75341796875, 4.75341796875, 4.781494140625, 4.8297119140625, 4.85321044921875, 4.8785400390625, 4.8785400390625, 4.89654541015625, 4.9102783203125, 4.94781494140625, 4.9603271484375, 4.9603271484375, 5.0244140625, 5.0244140625, 5.05126953125, 5.05126953125, 5.03662109375, 5.03662109375, 5.03662109375, 5.03662109375, 5.01434326171875, 5.01434326171875, 5.08331298828125, 5.08331298828125, 5.06134033203125, 5.06134033203125, 5.04547119140625, 5.04547119140625, 5.04547119140625, 5.04547119140625, 5.04608154296875, 5.04608154296875, 5.0152587890625, 5.0152587890625, 5.05828857421875, 5.05828857421875, 5.05828857421875, 5.05828857421875, 5.08514404296875, 5.08514404296875, 5.09521484375, 5.09521484375, 5.07080078125, 5.07080078125, 5.07659912109375, 5.07659912109375, 5.07659912109375, 5.07659912109375, 5.10040283203125, 5.10040283203125, 5.1129150390625, 5.1129150390625, 5.11962890625, 5.11962890625, 5.11962890625, 5.11962890625, 5.1190185546875, 5.1190185546875, 5.1171875, 5.1171875, 5.13214111328125, 5.13214111328125, 5.13214111328125, 5.13214111328125, 5.16571044921875, 5.16571044921875, 5.19134521484375, 5.19134521484375, 5.16571044921875, 5.16571044921875, 5.1641845703125, 5.1641845703125, 5.1641845703125, 5.1641845703125, 5.1708984375, 5.1708984375, 5.189208984375, 5.189208984375, 5.1824951171875, 5.1824951171875, 5.1824951171875, 5.1824951171875, 5.1507568359375, 5.1507568359375, 5.14923095703125, 5.14923095703125, 5.14678955078125, 5.14678955078125, 5.14678955078125, 5.14678955078125, 5.16143798828125, 5.16143798828125, 5.14678955078125, 5.14678955078125]",0.20403067650989287,-2.416004490540736,accepted,2.7280566000845283,8.008981700055301
pgACC-TUS-staircase,,1,2024-02-13_15h14.59.819,None,05,,,-0.06103515625,5.44842529296875,5.601704915364583,5.44854736328125,5.525126139322916,5.586161295572916,10,11,24,0,82,7,10,0,"[]",0.2625113632975849,1.00249685101525,rejected,2.441008999943733,0
pgACC-TUS-staircase,,1,2024-02-13_15h14.59.819,None,05,,,-0.06103515625,5.44842529296875,5.601704915364583,5.44854736328125,5.525126139322916,5.586161295572916,11,24,27,0,82,10,10,0,"[]",0.2625113632975849,-2.2511363297584914,rejected,3.99519980000332,0
pgACC-TUS-staircase,,1,2024-02-13_15h14.59.819,None,05,,,-0.06103515625,5.44842529296875,5.601704915364583,5.44854736328125,5.525126139322916,5.586161295572916,12,27,13,-1,81,10,7,0,"[0.06500244140625, 0.06103515625, 0.05584716796875, 0.05035400390625, 0.05035400390625, 0.04638671875, 0.04425048828125, 0.04150390625, 0.04150390625, 0.04180908203125, 0.0445556640625, 0.04669189453125, 0.04669189453125, 0.04608154296875, 0.0457763671875, 0.05157470703125, 0.05859375, 0.05859375, 0.0592041015625, 0.06103515625, 0.062255859375, 0.06988525390625, 0.06988525390625, 0.08392333984375, 0.09246826171875, 0.096435546875, 0.096435546875, 0.09674072265625, 0.0958251953125, 0.09735107421875, 0.09735107421875, 0.10040283203125, 0.101318359375, 0.103759765625, 0.103759765625, 0.103759765625, 0.1025390625, 0.1025390625, 0.10101318359375, 0.10101318359375, 0.09979248046875, 0.0970458984375, 0.0927734375, 0.089111328125, 0.089111328125, 0.08514404296875, 0.0958251953125, 0.19622802734375, 0.40435791015625, 0.40435791015625, 0.94451904296875, 1.6119384765625, 2.335205078125, 2.74688720703125, 2.74688720703125, 3.1195068359375, 3.39111328125, 3.51715087890625, 3.51715087890625, 3.5552978515625, 3.71307373046875, 3.91937255859375, 3.91937255859375, 4.12353515625, 4.10736083984375, 4.10400390625, 4.17816162109375, 4.17816162109375, 4.23431396484375, 4.2047119140625, 4.132080078125, 4.17236328125, 4.17236328125, 4.2291259765625, 4.24163818359375, 4.2724609375, 4.3115234375, 4.3115234375, 4.427490234375, 4.4158935546875, 4.30694580078125, 4.30419921875, 4.30419921875, 4.3304443359375, 4.3780517578125, 4.4287109375, 4.4287109375, 4.57366943359375, 4.715576171875, 4.86297607421875, 5.06927490234375, 5.06927490234375, 5.2081298828125, 5.2532958984375, 5.25238037109375, 5.2056884765625, 5.2056884765625, 5.04638671875, 4.82025146484375, 4.63348388671875, 4.4464111328125, 4.4464111328125, 4.39361572265625, 4.415283203125, 4.41741943359375, 4.41741943359375, 4.50927734375, 4.622802734375, 4.68231201171875, 4.68231201171875, 4.774169921875, 4.8553466796875, 4.9127197265625, 4.9127197265625, 5.003662109375, 5.081787109375, 5.1165771484375, 5.1165771484375, 5.17059326171875, 5.21087646484375, 5.27587890625, 5.32135009765625, 5.32135009765625, 5.36956787109375, 5.41839599609375, 5.42236328125, 5.42236328125, 5.408935546875, 5.411376953125, 5.438232421875, 5.46234130859375, 5.46234130859375, 5.4620361328125, 5.4248046875, 5.46173095703125, 5.46173095703125, 5.46600341796875, 5.4931640625, 5.5242919921875, 5.5108642578125, 5.5108642578125, 5.50689697265625, 5.53924560546875, 5.53924560546875, 5.5670166015625, 5.5670166015625, 5.567626953125, 5.567626953125, 5.567626953125, 5.567626953125, 5.5694580078125, 5.5694580078125, 5.5755615234375, 5.5755615234375, 5.59326171875, 5.59326171875, 5.59326171875, 5.59326171875, 5.59478759765625, 5.59478759765625, 5.60150146484375, 5.60150146484375, 5.606689453125, 5.606689453125, 5.606689453125, 5.606689453125, 5.60150146484375, 5.60150146484375, 5.6036376953125, 5.6036376953125, 5.5963134765625, 5.5963134765625, 5.5963134765625, 5.5963134765625, 5.59539794921875, 5.59539794921875, 5.5859375, 5.5859375, 5.53619384765625, 5.53619384765625, 5.51910400390625, 5.51910400390625, 5.52703857421875, 5.52703857421875, 5.5133056640625, 5.4205322265625, 5.321044921875, 5.321044921875, 5.29754638671875, 5.3240966796875, 5.311279296875, 5.311279296875, 5.299072265625, 5.2423095703125, 5.224609375, 5.224609375, 5.24993896484375, 5.23712158203125, 5.20721435546875, 5.18463134765625, 5.18463134765625, 5.1873779296875, 5.22369384765625, 5.224609375, 5.2020263671875, 5.2020263671875, 5.18829345703125, 5.24993896484375, 5.2801513671875, 5.2783203125, 5.2783203125, 5.25299072265625, 5.2490234375, 5.25299072265625, 5.299072265625, 5.299072265625, 5.29052734375, 5.25970458984375, 5.247802734375, 5.247802734375, 5.26611328125, 5.34515380859375, 5.39825439453125, 5.34210205078125, 5.34210205078125, 5.3375244140625, 5.33355712890625, 5.44891357421875, 5.4833984375, 5.4833984375, 5.47332763671875, 5.46600341796875, 5.4949951171875, 5.53009033203125, 5.53009033203125, 5.53009033203125, 5.53009033203125, 5.540771484375, 5.540771484375, 5.56915283203125, 5.56915283203125, 5.5303955078125, 5.5303955078125, 5.49896240234375, 5.49896240234375, 5.4931640625, 5.5401611328125, 5.5401611328125, 5.54931640625, 5.54931640625, 5.50384521484375, 5.50384521484375, 5.4754638671875, 5.46905517578125, 5.4888916015625, 5.5133056640625, 5.5133056640625, 5.523681640625, 5.47119140625, 5.472412109375, 5.472412109375, 5.4864501953125, 5.5303955078125, 5.5303955078125, 5.47698974609375, 5.46051025390625, 5.46051025390625, 5.40130615234375, 5.3369140625, 5.38421630859375, 5.38421630859375, 5.36895751953125, 5.3173828125, 5.30059814453125, 5.32928466796875, 5.32928466796875, 5.318603515625, 5.29632568359375, 5.2313232421875, 5.1434326171875, 5.1434326171875, 5.11505126953125, 5.10772705078125, 5.0830078125, 5.0830078125, 5.03631591796875, 5.0115966796875, 4.9755859375, 5.06134033203125, 5.06134033203125, 5.0689697265625, 5.0201416015625, 4.952392578125, 4.952392578125, 4.94720458984375, 4.947509765625, 4.92156982421875, 4.91363525390625, 4.91363525390625, 4.91241455078125, 4.89410400390625, 4.93438720703125, 4.96063232421875, 4.96063232421875, 4.9560546875, 4.9066162109375, 4.8480224609375, 4.8480224609375, 4.72503662109375, 4.66949462890625, 4.671630859375, 4.64630126953125, 4.64630126953125, 4.60845947265625, 4.56634521484375, 4.449462890625, 4.12872314453125, 4.12872314453125, 3.69476318359375, 3.43902587890625, 3.30413818359375, 3.17779541015625, 3.17779541015625, 2.96783447265625, 2.6898193359375, 2.36785888671875, 2.04986572265625, 2.04986572265625, 1.729736328125, 1.44378662109375, 1.2274169921875, 1.2274169921875, 0.986328125, 0.7806396484375, 0.606689453125, 0.47576904296875, 0.47576904296875, 0.3271484375, 0.2667236328125, 0.2264404296875, 0.2264404296875, 0.1690673828125, 0.14007568359375, 0.12451171875, 0.1080322265625, 0.1080322265625, 0.1007080078125, 0.0958251953125, 0.0927734375, 0.0927734375, 0.089111328125, 0.0836181640625, 0.07904052734375, 0.07598876953125, 0.07598876953125, 0.07293701171875, 0.07049560546875, 0.06744384765625, 0.06378173828125, 0.06378173828125, 0.05889892578125, 0.05767822265625, 0.057373046875, 0.057373046875, 0.057373046875, 0.057373046875, 0.05706787109375, 0.0543212890625, 0.0543212890625, 0.052490234375, 0.04974365234375, 0.0469970703125, 0.0445556640625, 0.04302978515625, 0.04302978515625, 0.04150390625, 0.0421142578125, 0.04180908203125, 0.03936767578125, 0.03936767578125, 0.03692626953125, 0.03265380859375, 0.03204345703125, 0.0311279296875, 0.0311279296875, 0.030517578125, 0.029296875, 0.028076171875, 0.0262451171875, 0.0262451171875, 0.02227783203125, 0.0201416015625, 0.018310546875, 0.018310546875, 0.0177001953125, 0.01800537109375, 0.01800537109375, 0.01556396484375, 0.01556396484375, 0.01434326171875, 0.0115966796875, 0.010986328125, 0.009765625, 0.009765625, 0.010986328125, 0.010986328125, 0.01068115234375, 0.01068115234375, 0.009765625, 0.00946044921875, 0.00762939453125, 0.00457763671875, 0.00457763671875, 0.003662109375, 0.00396728515625, 0.006103515625, 0.0091552734375, 0.0091552734375, 0.01495361328125, 0.035400390625, 0.04150390625, 0.04608154296875, 0.04608154296875, 0.0469970703125, 0.05126953125, 0.06011962890625, 0.07080078125, 0.07080078125, 0.0811767578125, 0.0897216796875, 0.096435546875, 0.09857177734375, 0.09857177734375, 0.09796142578125, 0.0946044921875, 0.0897216796875, 0.0830078125, 0.0830078125, 0.07537841796875, 0.0653076171875, 0.0628662109375, 0.062255859375, 0.062255859375, 0.0732421875, 0.08026123046875, 0.08087158203125, 0.0885009765625, 0.0885009765625, 0.10406494140625, 0.1153564453125, 0.12176513671875, 0.125732421875, 0.125732421875, 0.1275634765625, 0.12725830078125, 0.1202392578125, 0.1202392578125, 0.1165771484375, 0.1275634765625, 0.14312744140625, 0.25604248046875, 0.25604248046875, 0.50262451171875, 0.8868408203125, 1.336669921875, 1.336669921875, 1.64337158203125, 1.947021484375, 2.17071533203125, 2.42950439453125, 2.42950439453125, 2.493896484375, 2.5457763671875, 2.73345947265625, 2.88299560546875, 2.88299560546875, 2.94403076171875, 3.0084228515625, 2.9779052734375, 2.9779052734375, 3.01239013671875, 3.09722900390625, 3.1561279296875, 3.2366943359375, 3.2366943359375, 3.26690673828125, 3.2440185546875, 3.145751953125, 3.145751953125, 3.1396484375, 3.16436767578125, 3.148193359375, 3.148193359375, 3.106689453125, 2.9437255859375, 2.75848388671875, 2.84576416015625, 2.9254150390625, 2.9254150390625, 2.94525146484375, 2.9437255859375, 2.8387451171875, 2.8387451171875, 2.735595703125, 2.7081298828125, 2.61260986328125, 2.4163818359375, 2.4163818359375, 2.049560546875]",0.2625113632975849,0.7488636702415086,accepted,3.486627200152725,8.009471000172198
pgACC-TUS-staircase,,1,2024-02-13_15h14.59.819,None,05,,,-0.06103515625,5.44842529296875,5.601704915364583,5.44854736328125,5.525126139322916,5.586161295572916,13,13,25,13,94,7,10,7.25666584429118,"[0.03814697265625, 0.03814697265625, 0.02716064453125, 0.023193359375, 0.023193359375, 0.01739501953125, 0.01190185546875, 0.0103759765625, 0.0103759765625, 0.0115966796875, 0.0164794921875, 0.0164794921875, 0.02227783203125, 0.02716064453125, 0.04058837890625, 0.04058837890625, 0.03570556640625, 0.02197265625, 0.01983642578125, 0.01983642578125, 0.01708984375, 0.00823974609375, 0.00762939453125, 0.00762939453125, 0.00762939453125, 0.008544921875, 0.0091552734375, 0.0152587890625, 0.0152587890625, 0.02716064453125, 0.03662109375, 0.0543212890625, 0.0543212890625, 0.062255859375, 0.067138671875, 0.07232666015625, 0.07232666015625, 0.076904296875, 0.07781982421875, 0.0775146484375, 0.0775146484375, 0.076904296875, 0.07781982421875, 0.09002685546875, 0.1019287109375, 0.1019287109375, 0.11749267578125, 0.12664794921875, 0.140380859375, 0.140380859375, 0.150146484375, 0.15380859375, 0.18829345703125, 0.208740234375, 0.208740234375, 0.2069091796875, 0.21087646484375, 0.22552490234375, 0.22552490234375, 0.224609375, 0.2081298828125, 0.1910400390625, 0.1910400390625, 0.16693115234375, 0.14129638671875, 0.13092041015625, 0.12054443359375, 0.12054443359375, 0.11566162109375, 0.10833740234375, 0.10772705078125, 0.107421875, 0.107421875, 0.1116943359375, 0.12115478515625, 0.130615234375, 0.146484375, 0.146484375, 0.16754150390625, 0.1861572265625, 0.17822265625, 0.17822265625, 0.15411376953125, 0.140380859375, 0.137939453125, 0.13916015625, 0.13916015625, 0.1727294921875, 0.25726318359375, 0.54534912109375, 0.54534912109375, 0.975341796875, 1.41021728515625, 1.8243408203125, 2.22503662109375, 2.22503662109375, 2.46673583984375, 2.7264404296875, 3.03680419921875, 3.03680419921875, 3.21807861328125, 3.355712890625, 3.39752197265625, 3.4637451171875, 3.4637451171875, 3.48602294921875, 3.472900390625, 3.55560302734375, 3.55560302734375, 3.67401123046875, 3.72833251953125, 3.73016357421875, 3.82720947265625, 3.82720947265625, 3.86962890625, 3.86962890625, 3.91754150390625, 3.91754150390625, 3.919677734375, 3.919677734375, 3.9337158203125, 3.9337158203125, 3.9337158203125, 3.9337158203125, 4.066162109375, 4.066162109375, 4.06890869140625, 4.06890869140625, 4.05487060546875, 4.05487060546875, 4.0496826171875, 4.0496826171875, 4.0496826171875, 4.0496826171875, 4.033203125, 4.033203125, 4.00177001953125, 4.00177001953125, 4.09698486328125, 4.09698486328125, 4.09698486328125, 4.09698486328125, 4.176025390625, 4.176025390625, 4.2333984375, 4.2333984375, 4.212646484375, 4.212646484375, 4.20623779296875, 4.20623779296875, 4.20623779296875, 4.20623779296875, 4.2620849609375, 4.2620849609375, 4.295654296875, 4.295654296875, 4.23797607421875, 4.23797607421875, 4.23797607421875, 4.23797607421875, 4.227294921875, 4.227294921875, 4.19921875, 4.19921875, 4.2156982421875, 4.2156982421875, 4.25994873046875, 4.25994873046875, 4.25994873046875, 4.25994873046875, 4.27215576171875, 4.27215576171875, 4.23187255859375, 4.23187255859375, 4.23095703125, 4.23095703125, 4.23095703125, 4.23095703125, 4.2498779296875, 4.2498779296875, 4.23858642578125, 4.23858642578125, 4.25201416015625, 4.25201416015625, 4.222412109375, 4.222412109375, 4.222412109375, 4.222412109375, 4.19525146484375, 4.19525146484375, 4.2132568359375, 4.2132568359375, 4.217529296875, 4.217529296875, 4.217529296875, 4.217529296875, 4.21142578125, 4.21142578125, 4.15557861328125, 4.15557861328125, 4.15679931640625, 4.15679931640625, 4.11468505859375, 4.11468505859375, 4.11468505859375, 4.11468505859375, 4.10064697265625, 4.10064697265625, 4.127197265625, 4.127197265625, 4.11895751953125, 4.11895751953125, 4.1009521484375, 4.1009521484375, 4.1009521484375, 4.1009521484375, 4.07928466796875, 4.07928466796875, 4.07012939453125, 4.07012939453125, 4.01458740234375, 4.01458740234375, 4.01458740234375, 4.01458740234375, 4.017333984375, 4.017333984375, 4.036865234375, 4.036865234375, 4.0069580078125, 4.0069580078125, 4.06341552734375, 4.06341552734375, 4.06341552734375, 4.06341552734375, 4.03472900390625, 4.03472900390625, 4.0093994140625, 4.0093994140625]",0.2625113632975849,0.13694319841834002,accepted,3.0702705001458526,2.8982146000489593
pgACC-TUS-staircase,,1,2024-02-13_15h14.59.819,None,05,,,-0.06103515625,5.44842529296875,5.601704915364583,5.44854736328125,5.525126139322916,5.586161295572916,14,25,8,0,94,10,6,0,"[]",0.2625113632975849,-1.2511363297584914,rejected,1.821127099916339,0
pgACC-TUS-staircase,,1,2024-02-13_15h14.59.819,None,05,,,-0.06103515625,5.44842529296875,5.601704915364583,5.44854736328125,5.525126139322916,5.586161295572916,15,8,17,0,94,6,8,0,"[]",0.2625113632975849,-1.4504090787130561,rejected,1.9122812999412417,0
pgACC-TUS-staircase,,1,2024-02-13_15h14.59.819,None,05,,,-0.06103515625,5.44842529296875,5.601704915364583,5.44854736328125,5.525126139322916,5.586161295572916,16,17,23,17,111,8,9,8.509929263433873,"[-0.00152587890625, 0.00335693359375, 0.00335693359375, 0.0054931640625, 0.00762939453125, 0.0115966796875, 0.0115966796875, 0.013427734375, 0.0128173828125, 0.01251220703125, 0.01251220703125, 0.01007080078125, 0.0079345703125, 0.00701904296875, 0.00701904296875, 0.0067138671875, 0.00640869140625, 0.0067138671875, 0.009765625, 0.009765625, 0.01495361328125, 0.02197265625, 0.02685546875, 0.02685546875, 0.02838134765625, 0.029296875, 0.035400390625, 0.0421142578125, 0.0421142578125, 0.05157470703125, 0.05615234375, 0.06134033203125, 0.0634765625, 0.0634765625, 0.06011962890625, 0.05615234375, 0.0457763671875, 0.0457763671875, 0.02777099609375, 0.0091552734375, -0.001220703125, -0.001220703125, -0.00335693359375, -0.00244140625, 0.0, 0.00457763671875, 0.00457763671875, 0.01708984375, 0.03753662109375, 0.04669189453125, 0.04669189453125, 0.0799560546875, 0.10345458984375, 0.13671875, 0.19989013671875, 0.19989013671875, 0.242919921875, 0.25634765625, 0.26092529296875, 0.26123046875, 0.26123046875, 0.26611328125, 0.28289794921875, 0.3173828125, 0.4052734375, 0.4052734375, 0.6365966796875, 0.997314453125, 1.4837646484375, 1.83074951171875, 1.83074951171875, 2.154541015625, 2.44384765625, 2.72064208984375, 2.72064208984375, 2.94219970703125, 3.13995361328125, 3.27484130859375, 3.27484130859375, 3.29254150390625, 3.38623046875, 3.5333251953125, 3.66485595703125, 3.66485595703125, 3.7042236328125, 3.80096435546875, 3.91357421875, 4.04144287109375, 4.04144287109375, 4.2022705078125, 4.2242431640625, 4.30145263671875, 4.30145263671875, 4.37652587890625, 4.42779541015625, 4.42779541015625, 4.3768310546875, 4.43267822265625, 4.43267822265625, 4.43267822265625, 4.43267822265625, 4.4873046875, 4.4873046875, 4.541015625, 4.541015625, 4.5703125, 4.5703125, 4.5703125, 4.5703125, 4.5501708984375, 4.5501708984375, 4.50531005859375, 4.50531005859375, 4.49127197265625, 4.49127197265625, 4.49127197265625, 4.49127197265625, 4.4451904296875, 4.4451904296875, 4.38140869140625, 4.3609619140625, 4.3536376953125, 4.3536376953125, 4.359130859375, 4.4305419921875, 4.4305419921875, 4.3646240234375, 4.35150146484375, 4.35150146484375, 4.33624267578125, 4.34326171875, 4.32952880859375, 4.32952880859375, 4.33563232421875, 4.4342041015625, 4.4342041015625, 4.4256591796875, 4.4256591796875, 4.4256591796875, 4.4256591796875, 4.442138671875, 4.442138671875, 4.45648193359375, 4.45648193359375, 4.44915771484375, 4.44915771484375, 4.43634033203125, 4.43634033203125, 4.43634033203125, 4.43634033203125, 4.4586181640625, 4.4586181640625, 4.4744873046875, 4.4744873046875, 4.44610595703125, 4.44610595703125, 4.4390869140625, 4.4390869140625, 4.4390869140625, 4.4390869140625, 4.40887451171875, 4.4061279296875, 4.43389892578125, 4.43389892578125, 4.42779541015625, 4.42779541015625, 4.42779541015625, 4.42779541015625, 4.437255859375, 4.437255859375, 4.4287109375, 4.4287109375, 4.41497802734375, 4.41436767578125, 4.41436767578125, 4.42718505859375, 4.42718505859375, 4.4549560546875, 4.4549560546875, 4.46197509765625, 4.46197509765625, 4.46197509765625, 4.46197509765625, 4.47052001953125, 4.47052001953125, 4.4671630859375, 4.4671630859375, 4.4427490234375, 4.4427490234375, 4.4427490234375, 4.4427490234375, 4.44305419921875, 4.44305419921875, 4.45648193359375, 4.45648193359375, 4.461669921875, 4.461669921875, 4.4635009765625, 4.4635009765625, 4.4635009765625, 4.4635009765625, 4.47113037109375, 4.47113037109375, 4.495849609375, 4.495849609375, 4.50958251953125, 4.50958251953125, 4.50958251953125, 4.50958251953125, 4.4573974609375, 4.4573974609375, 4.437255859375, 4.437255859375, 4.4366455078125, 4.4366455078125, 4.4366455078125, 4.4366455078125, 4.4696044921875, 4.4696044921875, 4.517822265625, 4.517822265625, 4.52911376953125, 4.52911376953125, 4.47235107421875, 4.47235107421875, 4.47235107421875, 4.47235107421875, 4.43878173828125, 4.43878173828125, 4.4635009765625, 4.4635009765625, 4.51812744140625, 4.51812744140625, 4.5501708984375, 4.5501708984375, 4.5501708984375, 4.5501708984375, 4.5703125, 4.5703125, 4.55841064453125, 4.55841064453125, 4.55841064453125, 4.55841064453125, 4.60784912109375, 4.60784912109375, 4.64447021484375, 4.64447021484375, 4.64111328125, 4.64111328125, 4.6270751953125, 4.6270751953125, 4.6270751953125, 4.6270751953125, 4.65545654296875, 4.65545654296875, 4.67529296875, 4.67529296875, 4.6734619140625, 4.6734619140625, 4.6966552734375, 4.6966552734375, 4.6966552734375, 4.6966552734375, 4.688720703125, 4.688720703125, 4.681396484375, 4.681396484375, 4.71954345703125, 4.71954345703125, 4.7625732421875, 4.7625732421875, 4.7625732421875, 4.7625732421875, 4.7393798828125, 4.7393798828125, 4.74517822265625, 4.74517822265625, 4.74365234375, 4.74365234375, 4.74365234375, 4.74365234375, 4.74090576171875, 4.74090576171875, 4.73846435546875, 4.73846435546875, 4.725341796875, 4.725341796875, 4.68170166015625, 4.68170166015625, 4.68170166015625, 4.68170166015625, 4.6258544921875, 4.6258544921875, 4.64874267578125, 4.64874267578125, 4.70184326171875, 4.70184326171875]",0.2625113632975849,0.19927274895456648,accepted,11.20155780017376,3.392855899874121
pgACC-TUS-staircase,,1,2024-02-13_15h14.59.819,None,05,,,-0.06103515625,5.44842529296875,5.601704915364583,5.44854736328125,5.525126139322916,5.586161295572916,17,23,29,0,111,9,10,0,"[]",0.312582593401885,1.7365795728956215,rejected,2.2821460000704974,0
pgACC-TUS-staircase,,1,2024-02-13_15h14.59.819,None,05,,,-0.06103515625,5.44842529296875,5.601704915364583,5.44854736328125,5.525126139322916,5.586161295572916,18,29,24,0,111,10,9,0,"[]",0.312582593401885,-2.2582593401884985,rejected,5.004178199917078,0
pgACC-TUS-staircase,,1,2024-02-13_15h14.59.819,None,05,,,-0.06103515625,5.44842529296875,5.601704915364583,5.44854736328125,5.525126139322916,5.586161295572916,19,24,21,0,111,9,8,0,"[]",0.312582593401885,-1.3191900655526858,rejected,3.3327020001597703,0
pgACC-TUS-staircase,,1,2024-02-13_15h14.59.819,None,05,,,-0.06103515625,5.44842529296875,5.601704915364583,5.44854736328125,5.525126139322916,5.586161295572916,20,21,10,21,132,8,6,8.724237860449017,"[0.02899169921875, 0.02899169921875, 0.03021240234375, 0.0372314453125, 0.0372314453125, 0.05889892578125, 0.0689697265625, 0.0775146484375, 0.0775146484375, 0.07965087890625, 0.08026123046875, 0.0848388671875, 0.0848388671875, 0.09033203125, 0.09368896484375, 0.096435546875, 0.10009765625, 0.10009765625, 0.09918212890625, 0.09613037109375, 0.09124755859375, 0.09124755859375, 0.08819580078125, 0.08026123046875, 0.07293701171875, 0.0677490234375, 0.0677490234375, 0.05767822265625, 0.042724609375, 0.02838134765625, 0.01800537109375, 0.01800537109375, 0.0115966796875, 0.008544921875, 0.00518798828125, 0.00457763671875, 0.00457763671875, 0.00518798828125, 0.00518798828125, 0.0067138671875, 0.00885009765625, 0.00885009765625, 0.01251220703125, 0.01434326171875, 0.0146484375, 0.0146484375, 0.01373291015625, 0.00946044921875, 0.00732421875, 0.00732421875, 0.0042724609375, 0.0030517578125, 0.0042724609375, 0.00457763671875, 0.00457763671875, 0.01068115234375, 0.01983642578125, 0.032958984375, 0.05950927734375, 0.05950927734375, 0.07476806640625, 0.11474609375, 0.18524169921875, 0.3045654296875, 0.3045654296875, 0.63446044921875, 1.1279296875, 1.5966796875, 1.97235107421875, 1.97235107421875, 2.21282958984375, 2.4554443359375, 2.650146484375, 2.650146484375, 2.7203369140625, 2.93060302734375, 3.0426025390625, 3.0426025390625, 3.1744384765625, 3.29498291015625, 3.389892578125, 3.47686767578125, 3.47686767578125, 3.52691650390625, 3.6444091796875, 3.71337890625, 3.71337890625, 3.78326416015625, 3.9031982421875, 3.98101806640625, 4.1510009765625, 4.1510009765625, 4.22760009765625, 4.33197021484375, 4.33197021484375, 4.38323974609375, 4.36431884765625, 4.306640625, 4.306640625, 4.2431640625, 4.307861328125, 4.36981201171875, 4.35028076171875, 4.35028076171875, 4.32647705078125, 4.32464599609375, 4.34539794921875, 4.34539794921875, 4.3603515625, 4.3463134765625, 4.2950439453125, 4.295654296875, 4.295654296875, 4.29779052734375, 4.2938232421875, 4.3280029296875, 4.3280029296875, 4.3243408203125, 4.33868408203125, 4.40338134765625, 4.40460205078125, 4.40460205078125, 4.43084716796875, 4.43084716796875, 4.43603515625, 4.43603515625, 4.43756103515625, 4.43756103515625, 4.44305419921875, 4.44305419921875, 4.44305419921875, 4.44305419921875, 4.45343017578125, 4.45343017578125, 4.44122314453125, 4.44122314453125, 4.38385009765625, 4.38385009765625, 4.35516357421875, 4.35760498046875, 4.36553955078125, 4.27459716796875, 4.27459716796875, 4.20562744140625, 4.2181396484375, 4.2041015625, 4.2041015625, 4.2132568359375, 4.2236328125, 4.2486572265625, 4.2169189453125, 4.2169189453125, 4.21966552734375, 4.229736328125, 4.27215576171875, 4.27215576171875, 4.287109375, 4.32403564453125, 4.3414306640625, 4.3414306640625, 4.40948486328125, 4.4219970703125, 4.4219970703125, 4.43389892578125, 4.43389892578125, 4.44244384765625, 4.44244384765625, 4.44244384765625, 4.44244384765625, 4.4415283203125, 4.4415283203125, 4.44183349609375, 4.44183349609375, 4.44061279296875, 4.44061279296875, 4.32373046875, 4.32373046875, 4.21173095703125, 4.14398193359375, 4.1064453125, 3.97918701171875, 3.97918701171875, 3.66241455078125, 3.27972412109375, 3.1414794921875, 3.1011962890625, 3.1011962890625, 3.03955078125, 2.89337158203125, 2.52288818359375, 2.52288818359375, 2.03887939453125, 1.66900634765625, 1.33819580078125, 1.1090087890625, 1.1090087890625, 0.84503173828125, 0.64239501953125, 0.51513671875, 0.51513671875, 0.421142578125, 0.340576171875, 0.28228759765625, 0.26092529296875, 0.26092529296875, 0.23101806640625, 0.19683837890625, 0.18280029296875, 0.14801025390625, 0.14801025390625, 0.10833740234375, 0.08148193359375, 0.05615234375, 0.05615234375, 0.023193359375, 0.00274658203125, -0.006103515625, -0.00762939453125, -0.00762939453125, -0.006103515625, -0.0042724609375, 0.00030517578125, 0.00030517578125, 0.00885009765625, 0.01739501953125, 0.06927490234375, 0.08758544921875, 0.08758544921875, 0.10498046875, 0.14495849609375, 0.17486572265625, 0.1849365234375, 0.1849365234375, 0.1898193359375, 0.1971435546875, 0.196533203125, 0.196533203125, 0.2130126953125, 0.24383544921875, 0.269775390625, 0.269775390625, 0.32073974609375, 0.37384033203125, 0.43304443359375, 0.47088623046875, 0.47088623046875, 0.46600341796875, 0.43304443359375, 0.39398193359375, 0.39398193359375, 0.3314208984375, 0.2862548828125, 0.27130126953125, 0.255126953125, 0.255126953125, 0.24017333984375, 0.24078369140625, 0.23956298828125, 0.21728515625, 0.21728515625, 0.19561767578125, 0.19317626953125, 0.19073486328125, 0.1885986328125, 0.1885986328125, 0.2606201171875, 0.291748046875, 0.335693359375, 0.39031982421875, 0.39031982421875, 0.4205322265625, 0.43487548828125, 0.440673828125, 0.419921875, 0.419921875, 0.37689208984375, 0.42633056640625, 0.4718017578125, 0.4718017578125, 0.4974365234375, 0.4864501953125, 0.4644775390625, 0.4644775390625, 0.45989990234375, 0.46600341796875, 0.43701171875, 0.43701171875, 0.39031982421875, 0.3582763671875, 0.3564453125, 0.35430908203125, 0.35430908203125, 0.360107421875, 0.426025390625, 0.63629150390625, 0.63629150390625, 1.033935546875, 1.4697265625, 2.08953857421875, 2.62451171875, 2.62451171875, 2.94219970703125, 3.25439453125, 3.494873046875, 3.65081787109375, 3.65081787109375, 3.82080078125, 3.97308349609375, 4.16778564453125, 4.16778564453125, 4.22210693359375, 4.22515869140625, 4.32342529296875, 4.4366455078125, 4.4366455078125, 4.4366455078125, 4.4366455078125, 4.4256591796875, 4.4256591796875, 4.53094482421875, 4.53094482421875, 4.6136474609375, 4.6136474609375, 4.6136474609375, 4.6136474609375, 4.7503662109375, 4.7503662109375, 4.78363037109375, 4.78363037109375, 4.82391357421875, 4.82391357421875, 4.9102783203125, 4.9102783203125, 4.97039794921875, 4.97039794921875, 4.97039794921875, 4.97039794921875, 5.06378173828125, 5.06378173828125, 5.0714111328125, 5.0714111328125, 5.123291015625, 5.123291015625, 5.123291015625, 5.123291015625, 5.167236328125, 5.167236328125, 5.1971435546875, 5.1971435546875, 5.21514892578125, 5.21514892578125, 5.21514892578125, 5.21514892578125, 5.211181640625, 5.211181640625, 5.19927978515625, 5.19927978515625, 5.238037109375, 5.238037109375, 5.21392822265625, 5.21392822265625, 5.21392822265625, 5.21392822265625, 5.1702880859375, 5.1702880859375, 5.1617431640625, 5.1617431640625, 5.15167236328125, 5.15167236328125, 5.16448974609375, 5.16448974609375, 5.16448974609375, 5.16448974609375, 5.06378173828125, 5.06378173828125, 4.9578857421875, 4.9578857421875, 4.92523193359375, 4.92523193359375, 4.92523193359375, 4.92523193359375, 4.8992919921875, 4.8992919921875, 4.83062744140625, 4.83062744140625, 4.76959228515625, 4.76959228515625, 4.765625, 4.765625, 4.765625, 4.765625, 4.7235107421875, 4.7235107421875, 4.67193603515625, 4.67193603515625, 4.72503662109375, 4.72503662109375, 4.73724365234375, 4.73724365234375, 4.73724365234375, 4.73724365234375, 4.6942138671875, 4.6942138671875, 4.64752197265625, 4.64752197265625, 4.70550537109375, 4.70550537109375, 4.70550537109375, 4.70550537109375, 4.7650146484375, 4.7650146484375, 4.7613525390625, 4.7613525390625, 4.7637939453125, 4.7637939453125, 4.7637939453125, 4.7637939453125, 4.81689453125, 4.81689453125, 4.783935546875, 4.783935546875, 4.8016357421875, 4.8016357421875, 4.81689453125, 4.81689453125, 4.81689453125, 4.81689453125, 4.77142333984375, 4.77142333984375, 4.76837158203125, 4.76837158203125, 4.76470947265625, 4.76470947265625, 4.76470947265625, 4.76470947265625, 4.82025146484375, 4.82025146484375]",0.312582593401885,0.9947140222793607,accepted,2.0817910998594016,5.992688900092617
pgACC-TUS-staircase,,1,2024-02-13_15h14.59.819,None,05,,,-0.06103515625,5.44842529296875,5.601704915364583,5.44854736328125,5.525126139322916,5.586161295572916,21,10,5,10,142,6,5,6.643014165724618,"[0.01800537109375, 0.01708984375, 0.01678466796875, 0.01678466796875, 0.01678466796875, 0.0152587890625, 0.0152587890625, 0.01495361328125, 0.015869140625, 0.015869140625, 0.01556396484375, 0.0177001953125, 0.02288818359375, 0.02288818359375, 0.02593994140625, 0.02960205078125, 0.03387451171875, 0.03387451171875, 0.03692626953125, 0.03875732421875, 0.04180908203125, 0.048828125, 0.048828125, 0.05126953125, 0.04913330078125, 0.0469970703125, 0.0469970703125, 0.04180908203125, 0.030517578125, 0.025634765625, 0.025634765625, 0.0250244140625, 0.02532958984375, 0.0274658203125, 0.028076171875, 0.028076171875, 0.08758544921875, 0.257568359375, 0.45440673828125, 0.45440673828125, 0.72906494140625, 1.1773681640625, 1.44256591796875, 1.636962890625, 1.636962890625, 1.85089111328125, 2.0849609375, 2.281494140625, 2.4298095703125, 2.4298095703125, 2.56256103515625, 2.734375, 2.911376953125, 2.911376953125, 3.0157470703125, 3.17962646484375, 3.18328857421875, 3.18328857421875, 3.24005126953125, 3.36578369140625, 3.36578369140625, 3.42315673828125, 3.42315673828125, 3.3795166015625, 3.3795166015625, 3.3795166015625, 3.3795166015625, 3.4014892578125, 3.4014892578125, 3.49151611328125, 3.49151611328125, 3.53057861328125, 3.53057861328125, 3.53057861328125, 3.53057861328125, 3.60107421875, 3.60107421875, 3.603515625, 3.603515625, 3.62030029296875, 3.62030029296875, 3.65631103515625, 3.65631103515625, 3.65631103515625, 3.65631103515625, 3.68682861328125, 3.68682861328125, 3.68072509765625, 3.68072509765625, 3.6724853515625, 3.6724853515625, 3.697509765625, 3.697509765625, 3.697509765625, 3.697509765625, 3.71185302734375, 3.71185302734375, 3.7835693359375, 3.7835693359375, 3.8299560546875, 3.8299560546875, 3.8818359375, 3.8818359375, 3.8818359375, 3.8818359375, 3.82904052734375, 3.82904052734375, 3.76007080078125, 3.76007080078125, 3.734130859375, 3.734130859375, 3.734130859375, 3.734130859375, 3.77685546875, 3.77685546875, 3.7799072265625, 3.7799072265625, 3.71307373046875, 3.71307373046875, 3.6614990234375, 3.6614990234375, 3.6614990234375, 3.6614990234375, 3.65966796875, 3.65966796875, 3.68560791015625, 3.68560791015625, 3.70147705078125, 3.70147705078125, 3.70147705078125, 3.70147705078125, 3.6907958984375, 3.6907958984375, 3.7066650390625, 3.7066650390625, 3.743896484375, 3.743896484375, 3.743896484375, 3.743896484375, 3.71826171875, 3.71826171875, 3.6859130859375, 3.6859130859375, 3.6749267578125, 3.6749267578125, 3.663330078125, 3.663330078125, 3.663330078125, 3.663330078125, 3.62091064453125, 3.62091064453125, 3.6749267578125, 3.6749267578125, 3.71337890625, 3.71337890625, 3.71337890625, 3.71337890625, 3.71734619140625, 3.71734619140625, 3.6883544921875, 3.6883544921875, 3.7249755859375, 3.7249755859375, 3.7249755859375, 3.7249755859375, 3.712158203125, 3.712158203125, 3.65509033203125, 3.65509033203125, 3.6456298828125, 3.6456298828125, 3.64898681640625, 3.64898681640625, 3.64898681640625, 3.64898681640625, 3.6578369140625, 3.6578369140625, 3.6474609375, 3.6474609375, 3.67034912109375, 3.67034912109375]",0.26538389633526627,-1.2529733624678592,accepted,1.9038031999953091,1.9651374001987278
pgACC-TUS-staircase,,1,2024-02-13_15h14.59.819,None,05,,,-0.06103515625,5.44842529296875,5.601704915364583,5.44854736328125,5.525126139322916,5.586161295572916,22,5,28,0,142,5,10,0,"[]",0.26538389633526627,-1.6345974083816568,rejected,2.143322399817407,0
pgACC-TUS-staircase,,1,2024-02-13_15h14.59.819,None,05,,,-0.06103515625,5.44842529296875,5.601704915364583,5.44854736328125,5.525126139322916,5.586161295572916,23,28,4,0,142,10,3,0,"[]",0.31142304779978647,1.4616103664733728,rejected,1.8425457999110222,0
pgACC-TUS-staircase,,1,2024-02-13_15h14.59.819,None,05,,,-0.06103515625,5.44842529296875,5.601704915364583,5.44854736328125,5.525126139322916,5.586161295572916,24,4,28,4,146,3,10,4.465130665645448,"[0.03082275390625, 0.0299072265625, 0.0299072265625, 0.0225830078125, 0.01922607421875, 0.0189208984375, 0.0189208984375, 0.018310546875, 0.0189208984375, 0.0189208984375, 0.01708984375, 0.01678466796875, 0.01617431640625, 0.01617431640625, 0.01678466796875, 0.01708984375, 0.0177001953125, 0.0177001953125, 0.018310546875, 0.01953125, 0.02105712890625, 0.02105712890625, 0.02105712890625, 0.02532958984375, 0.03173828125, 0.0360107421875, 0.06927490234375, 0.06927490234375, 0.1593017578125, 0.30670166015625, 0.63079833984375, 0.63079833984375, 1.187744140625, 1.5283203125, 1.78558349609375, 1.78558349609375, 1.9775390625, 1.9775390625, 1.9775390625, 1.9775390625, 2.1527099609375, 2.1527099609375, 2.28271484375, 2.28271484375, 2.33154296875, 2.33154296875, 2.48779296875, 2.48779296875, 2.48779296875, 2.48779296875, 2.68341064453125, 2.68341064453125, 2.7117919921875, 2.7117919921875, 2.69744873046875, 2.69744873046875, 2.69744873046875, 2.69744873046875, 2.6983642578125, 2.6983642578125, 2.6885986328125, 2.6885986328125, 2.66326904296875, 2.66326904296875, 2.593994140625, 2.593994140625, 2.593994140625, 2.593994140625, 2.51129150390625, 2.51129150390625, 2.49420166015625, 2.49420166015625, 2.40936279296875, 2.40936279296875, 2.40936279296875, 2.40936279296875, 2.2552490234375, 2.2552490234375, 2.13775634765625, 2.13775634765625, 2.06817626953125, 2.06817626953125, 1.94488525390625, 1.94488525390625, 1.94488525390625, 1.94488525390625, 1.798095703125, 1.798095703125, 1.71356201171875, 1.71356201171875, 1.76513671875, 1.76513671875, 1.76513671875, 1.76513671875, 1.85760498046875, 1.85760498046875, 1.94915771484375, 1.94915771484375, 2.10205078125, 2.10205078125, 2.25555419921875, 2.25555419921875, 2.25555419921875, 2.25555419921875, 2.310791015625, 2.310791015625, 2.30621337890625, 2.30621337890625, 2.23297119140625, 2.23297119140625, 2.23297119140625, 2.23297119140625, 2.364501953125, 2.364501953125, 2.58544921875, 2.58544921875, 2.6580810546875, 2.6580810546875, 2.6580810546875, 2.6580810546875, 2.6690673828125, 2.6690673828125, 2.6953125, 2.6953125, 2.68402099609375, 2.68402099609375, 2.6458740234375, 2.6458740234375, 2.6458740234375, 2.6458740234375, 2.63275146484375, 2.63275146484375, 2.57659912109375, 2.57659912109375, 2.51068115234375, 2.51068115234375, 2.52655029296875, 2.52655029296875, 2.52655029296875, 2.52655029296875, 2.5067138671875, 2.5067138671875, 2.61962890625, 2.61962890625, 2.66357421875, 2.66357421875, 2.66357421875, 2.66357421875, 2.6373291015625, 2.6373291015625, 2.60284423828125, 2.60284423828125, 2.50885009765625, 2.50885009765625, 2.467041015625, 2.467041015625, 2.467041015625, 2.467041015625]",0.31142304779978647,1.197192569801922,accepted,1.9238177000079304,1.5662900998722762
pgACC-TUS-staircase,,1,2024-02-13_15h14.59.819,None,05,,,-0.06103515625,5.44842529296875,5.601704915364583,5.44854736328125,5.525126139322916,5.586161295572916,25,28,6,0,146,10,4,0,"[]",0.31142304779978647,-3.142304779978648,rejected,2.7565198000520468,0
pgACC-TUS-staircase,,1,2024-02-13_15h14.59.819,None,05,,,-0.06103515625,5.44842529296875,5.601704915364583,5.44854736328125,5.525126139322916,5.586161295572916,26,6,23,0,146,4,8,0,"[]",0.35596917845579196,1.0172312352034165,rejected,6.817817500093952,0
pgACC-TUS-staircase,,1,2024-02-13_15h14.59.819,None,05,,,-0.06103515625,5.44842529296875,5.601704915364583,5.44854736328125,5.525126139322916,5.586161295572916,27,23,20,23,169,8,7,8.392280471773496,"[0.05706787109375, 0.05706787109375, 0.05645751953125, 0.05584716796875, 0.05584716796875, 0.05645751953125, 0.05828857421875, 0.0628662109375, 0.0628662109375, 0.0628662109375, 0.0579833984375, 0.05340576171875, 0.048828125, 0.048828125, 0.050048828125, 0.05279541015625, 0.05645751953125, 0.0616455078125, 0.0616455078125, 0.06591796875, 0.0701904296875, 0.0701904296875, 0.0701904296875, 0.06866455078125, 0.05401611328125, 0.04180908203125, 0.0341796875, 0.0341796875, 0.0274658203125, 0.020751953125, 0.0201416015625, 0.0201416015625, 0.0201416015625, 0.020751953125, 0.02166748046875, 0.02105712890625, 0.02105712890625, 0.0201416015625, 0.0201416015625, 0.01708984375, 0.01708984375, 0.0115966796875, 0.008544921875, 0.00579833984375, 0.00579833984375, 0.00335693359375, 0.0030517578125, 0.0048828125, 0.023193359375, 0.023193359375, 0.125732421875, 0.31768798828125, 0.751953125, 1.1834716796875, 1.1834716796875, 1.52252197265625, 1.76025390625, 2.015380859375, 2.27783203125, 2.27783203125, 2.462158203125, 2.662353515625, 2.7886962890625, 2.7886962890625, 3.12286376953125, 3.12286376953125, 3.18115234375, 3.25103759765625, 3.3319091796875, 3.3319091796875, 3.505859375, 3.66973876953125, 3.726806640625, 3.701171875, 3.701171875, 3.7396240234375, 3.80157470703125, 3.74664306640625, 3.680419921875, 3.680419921875, 3.673095703125, 3.67156982421875, 3.57421875, 3.5546875, 3.5546875, 3.6236572265625, 3.54644775390625, 3.53485107421875, 3.53485107421875, 3.63006591796875, 3.71063232421875, 3.78936767578125, 3.78936767578125, 3.8214111328125, 3.87603759765625, 3.9666748046875, 3.9666748046875, 3.99932861328125, 4.03350830078125, 4.1455078125, 4.2742919921875, 4.2742919921875, 4.2657470703125, 4.249267578125, 4.3231201171875, 4.3231201171875, 4.39483642578125, 4.3798828125, 4.35455322265625, 4.35455322265625, 4.3896484375, 4.4390869140625, 4.4390869140625, 4.4549560546875, 4.4549560546875, 4.490966796875, 4.490966796875, 4.490966796875, 4.490966796875, 4.45953369140625, 4.45953369140625, 4.482421875, 4.482421875, 4.4873046875, 4.4873046875, 4.46868896484375, 4.46868896484375, 4.46868896484375, 4.46868896484375, 4.4732666015625, 4.4732666015625, 4.51416015625, 4.51416015625, 4.515380859375, 4.515380859375, 4.482421875, 4.482421875, 4.482421875, 4.482421875, 4.51324462890625, 4.51324462890625, 4.57000732421875, 4.57000732421875, 4.5660400390625, 4.5660400390625, 4.5660400390625, 4.5660400390625, 4.57611083984375, 4.57611083984375, 4.55963134765625, 4.55963134765625, 4.493408203125, 4.493408203125, 4.46136474609375, 4.46136474609375, 4.46136474609375, 4.46136474609375, 4.45159912109375, 4.45159912109375, 4.4775390625, 4.4775390625, 4.41192626953125, 4.38568115234375, 4.38568115234375, 4.4195556640625, 4.349365234375, 4.32098388671875, 4.32098388671875, 4.4256591796875, 4.4256591796875, 4.4403076171875, 4.4403076171875, 4.43084716796875, 4.43084716796875, 4.41650390625, 4.41650390625, 4.43389892578125, 4.43389892578125, 4.486083984375, 4.486083984375, 4.4921875, 4.4921875, 4.4482421875, 4.4482421875, 4.4482421875, 4.4482421875, 4.36431884765625, 4.34326171875, 4.36370849609375, 4.36370849609375, 4.36737060546875, 4.41314697265625, 4.41375732421875, 4.41680908203125, 4.41680908203125, 4.41802978515625, 4.4189453125, 4.4329833984375, 4.4329833984375, 4.4146728515625, 4.4146728515625, 4.37957763671875, 4.3536376953125, 4.4232177734375, 4.4232177734375, 4.4232177734375, 4.4232177734375, 4.48486328125, 4.48486328125, 4.49249267578125, 4.49249267578125, 4.56024169921875, 4.56024169921875, 4.5635986328125, 4.5635986328125, 4.5635986328125, 4.5635986328125, 4.60906982421875, 4.60906982421875, 4.62127685546875, 4.62127685546875, 4.65972900390625, 4.65972900390625, 4.6319580078125, 4.6319580078125, 4.6319580078125, 4.6319580078125, 4.6429443359375, 4.6429443359375, 4.67620849609375, 4.67620849609375, 4.7479248046875, 4.7479248046875, 4.7479248046875, 4.7479248046875, 4.74334716796875, 4.74334716796875, 4.7503662109375, 4.7503662109375, 4.76470947265625, 4.76470947265625, 4.75921630859375, 4.75921630859375, 4.75921630859375, 4.75921630859375, 4.79217529296875, 4.79217529296875, 4.78179931640625, 4.78179931640625, 4.7705078125, 4.7705078125, 4.7705078125, 4.7705078125, 4.7705078125, 4.7705078125, 4.769287109375, 4.769287109375, 4.774169921875, 4.774169921875, 4.7564697265625, 4.7564697265625, 4.7564697265625, 4.7564697265625, 4.73480224609375, 4.73480224609375, 4.74761962890625, 4.74761962890625, 4.781494140625, 4.781494140625, 4.781494140625, 4.781494140625, 4.78546142578125, 4.78546142578125, 4.82452392578125, 4.82452392578125, 4.7802734375, 4.7802734375, 4.7802734375, 4.7802734375, 4.75555419921875, 4.75555419921875, 4.7015380859375, 4.7015380859375, 4.68536376953125, 4.68536376953125, 4.71923828125, 4.71923828125, 4.71923828125, 4.71923828125, 4.7015380859375, 4.7015380859375, 4.64111328125, 4.64111328125, 4.6319580078125, 4.6319580078125, 4.6319580078125, 4.6319580078125, 4.63653564453125, 4.63653564453125, 4.6502685546875, 4.6502685546875, 4.63653564453125, 4.63653564453125, 4.63653564453125, 4.63653564453125, 4.64111328125, 4.64111328125, 4.6478271484375, 4.6478271484375, 4.65087890625, 4.65087890625, 4.63775634765625, 4.63775634765625, 4.64141845703125, 4.64141845703125, 4.64141845703125, 4.64141845703125, 4.6649169921875, 4.6649169921875, 4.635009765625, 4.635009765625, 4.6368408203125, 4.6368408203125, 4.6368408203125, 4.6368408203125]",0.35596917845579196,0.21797257882931476,accepted,2.4524044999852777,3.807094299932942
pgACC-TUS-staircase,,1,2024-02-13_15h14.59.819,None,05,,,-0.06103515625,5.44842529296875,5.601704915364583,5.44854736328125,5.525126139322916,5.586161295572916,28,20,16,20,189,7,7,7.354430333135719,"[0.0714111328125, 0.0823974609375, 0.09765625, 0.09765625, 0.10528564453125, 0.1129150390625, 0.1129150390625, 0.1177978515625, 0.113525390625, 0.1123046875, 0.1123046875, 0.111083984375, 0.111083984375, 0.107421875, 0.107421875, 0.103759765625, 0.10223388671875, 0.1019287109375, 0.1019287109375, 0.1007080078125, 0.1031494140625, 0.103759765625, 0.10650634765625, 0.10650634765625, 0.1080322265625, 0.10650634765625, 0.1019287109375, 0.1019287109375, 0.09246826171875, 0.08331298828125, 0.0750732421875, 0.0750732421875, 0.0714111328125, 0.0732421875, 0.09033203125, 0.10162353515625, 0.10162353515625, 0.11138916015625, 0.11749267578125, 0.128173828125, 0.128173828125, 0.1361083984375, 0.15289306640625, 0.21087646484375, 0.32928466796875, 0.32928466796875, 0.63568115234375, 1.15447998046875, 1.59393310546875, 2.10235595703125, 2.10235595703125, 2.4884033203125, 2.738037109375, 2.8790283203125, 2.96600341796875, 2.96600341796875, 3.22174072265625, 3.380126953125, 3.394775390625, 3.394775390625, 3.52630615234375, 3.609619140625, 3.533935546875, 3.533935546875, 3.6102294921875, 3.65264892578125, 3.62945556640625, 3.62945556640625, 3.62945556640625, 3.6907958984375, 3.75152587890625, 3.7933349609375, 3.7933349609375, 3.79150390625, 3.90625, 3.90625, 3.94012451171875, 3.94012451171875, 4.07073974609375, 4.07073974609375, 4.07073974609375, 4.07073974609375, 4.1204833984375, 4.1204833984375, 4.13330078125, 4.13330078125, 4.129638671875, 4.129638671875, 4.129638671875, 4.129638671875, 4.17510986328125, 4.17510986328125, 4.2431640625, 4.2431640625, 4.2486572265625, 4.2486572265625, 4.28924560546875, 4.28924560546875, 4.28924560546875, 4.28924560546875, 4.2626953125, 4.2626953125, 4.241943359375, 4.241943359375, 4.2352294921875, 4.2352294921875, 4.27581787109375, 4.27581787109375, 4.31060791015625, 4.31060791015625, 4.31060791015625, 4.31060791015625, 4.27734375, 4.27734375, 4.23431396484375, 4.23431396484375, 4.26513671875, 4.26513671875, 4.26513671875, 4.26513671875, 4.30877685546875, 4.30877685546875, 4.281005859375, 4.281005859375, 4.22027587890625, 4.22027587890625, 4.207763671875, 4.207763671875, 4.207763671875, 4.207763671875, 4.2376708984375, 4.2376708984375, 4.26300048828125, 4.26300048828125, 4.2645263671875, 4.2645263671875, 4.23187255859375, 4.23187255859375, 4.23187255859375, 4.23187255859375, 4.22210693359375, 4.22210693359375, 4.229736328125, 4.229736328125, 4.2449951171875, 4.2449951171875, 4.2449951171875, 4.2449951171875, 4.1094970703125, 4.1094970703125, 4.095458984375, 4.095458984375, 4.12261962890625, 4.12261962890625, 4.13421630859375, 4.13421630859375, 4.13421630859375, 4.13421630859375, 4.16259765625, 4.16259765625, 4.136962890625, 4.136962890625, 4.10888671875, 4.10888671875, 4.10614013671875, 4.10614013671875, 4.10614013671875, 4.10614013671875, 4.10858154296875, 4.10858154296875, 3.99658203125, 3.99658203125, 3.93768310546875, 3.93768310546875, 3.93768310546875, 3.93768310546875, 3.92852783203125, 3.92852783203125, 3.935546875, 3.935546875, 3.95904541015625, 3.95904541015625, 3.95904541015625, 3.95904541015625, 3.97674560546875, 3.97674560546875, 3.997802734375, 3.997802734375, 3.98162841796875, 3.98162841796875, 3.9801025390625, 3.9801025390625, 3.9801025390625, 3.9801025390625, 4.06341552734375, 4.06341552734375]",0.35596917845579196,2.5575102556661946,accepted,1.306463599903509,2.2276307998690754
pgACC-TUS-staircase,,1,2024-02-13_15h14.59.819,None,05,,,-0.06103515625,5.44842529296875,5.601704915364583,5.44854736328125,5.525126139322916,5.586161295572916,29,16,11,16,205,7,6,7.46766039083702,"[0.0323486328125, 0.03204345703125, 0.03204345703125, 0.030517578125, 0.02471923828125, 0.02471923828125, 0.01922607421875, 0.01953125, 0.01953125, 0.01739501953125, 0.01708984375, 0.01678466796875, 0.01678466796875, 0.01678466796875, 0.01739501953125, 0.01739501953125, 0.01739501953125, 0.02838134765625, 0.02838134765625, 0.050048828125, 0.06561279296875, 0.0714111328125, 0.0714111328125, 0.072021484375, 0.0701904296875, 0.0701904296875, 0.068359375, 0.06805419921875, 0.0732421875, 0.08270263671875, 0.08270263671875, 0.0860595703125, 0.09521484375, 0.10284423828125, 0.10284423828125, 0.1116943359375, 0.1318359375, 0.145263671875, 0.145263671875, 0.1715087890625, 0.22613525390625, 0.2569580078125, 0.2569580078125, 0.27740478515625, 0.29266357421875, 0.31097412109375, 0.31097412109375, 0.40863037109375, 0.5291748046875, 0.70220947265625, 1.0064697265625, 1.0064697265625, 1.317138671875, 1.6107177734375, 1.8780517578125, 1.8780517578125, 2.056884765625, 2.33734130859375, 2.58148193359375, 2.58148193359375, 2.6654052734375, 2.724609375, 2.94677734375, 3.07403564453125, 3.07403564453125, 3.192138671875, 3.2830810546875, 3.2965087890625, 3.2965087890625, 3.3050537109375, 3.4381103515625, 3.5711669921875, 3.5711669921875, 3.68194580078125, 3.67950439453125, 3.68438720703125, 3.67523193359375, 3.67523193359375, 3.5858154296875, 3.4271240234375, 3.4771728515625, 3.58245849609375, 3.58245849609375, 3.6248779296875, 3.6712646484375, 3.7677001953125, 3.7677001953125, 3.86688232421875, 3.868408203125, 3.868408203125, 3.86962890625, 3.86962890625, 3.86962890625, 3.86962890625, 3.91387939453125, 3.91387939453125, 4.0374755859375, 4.0374755859375, 4.1094970703125, 4.1094970703125, 4.10308837890625, 4.10308837890625, 4.10308837890625, 4.10308837890625, 4.11102294921875, 4.11102294921875, 4.14459228515625, 4.14459228515625, 4.13543701171875, 4.13543701171875, 4.17083740234375, 4.17083740234375, 4.17083740234375, 4.17083740234375, 4.17510986328125, 4.17510986328125, 4.15771484375, 4.15771484375, 4.2010498046875, 4.2010498046875, 4.219970703125, 4.219970703125, 4.219970703125, 4.219970703125, 4.2169189453125, 4.2169189453125, 4.21630859375, 4.21630859375, 4.2108154296875, 4.2108154296875, 4.11407470703125, 4.11407470703125, 4.11407470703125, 4.11407470703125, 4.10675048828125, 4.10675048828125, 4.10491943359375, 4.10491943359375, 4.10980224609375, 4.10980224609375, 4.09912109375, 4.09912109375, 4.09912109375, 4.09912109375, 4.0948486328125, 4.0948486328125, 4.09393310546875, 4.09393310546875, 4.0380859375, 4.0380859375, 4.0380859375, 4.0380859375, 4.10552978515625, 4.10552978515625, 4.114990234375, 4.114990234375, 4.1265869140625, 4.1265869140625, 4.11895751953125, 4.11895751953125, 4.11895751953125, 4.11895751953125, 4.156494140625, 4.156494140625, 4.2352294921875, 4.2352294921875, 4.21539306640625, 4.21539306640625, 4.21539306640625, 4.21539306640625, 4.21600341796875, 4.21600341796875, 4.20135498046875, 4.20135498046875, 4.12750244140625, 4.12750244140625, 4.12750244140625, 4.12750244140625, 4.1064453125, 4.1064453125, 4.12933349609375, 4.12933349609375, 4.15496826171875, 4.15496826171875, 4.1595458984375, 4.1595458984375, 4.1595458984375, 4.1595458984375, 4.173583984375, 4.173583984375, 4.215087890625, 4.215087890625, 4.22821044921875, 4.22821044921875, 4.22821044921875, 4.22821044921875, 4.207763671875, 4.207763671875, 4.1412353515625, 4.1412353515625, 4.1156005859375, 4.1156005859375, 4.136962890625, 4.136962890625, 4.136962890625, 4.136962890625, 4.136962890625, 4.136962890625, 4.1259765625, 4.1259765625]",0.31268832722912304,-1.4424897443338054,accepted,1.5648381998762488,2.4485118000302464
pgACC-TUS-staircase,,1,2024-02-13_15h14.59.819,None,05,,,-0.06103515625,5.44842529296875,5.601704915364583,5.44854736328125,5.525126139322916,5.586161295572916,30,11,13,0,205,6,6,0,"[]",0.31268832722912304,-0.2567797802484293,rejected,2.8936467999592423,0
pgACC-TUS-staircase,,1,2024-02-13_15h14.59.819,None,05,,,-0.06103515625,5.44842529296875,5.601704915364583,5.44854736328125,5.525126139322916,5.586161295572916,31,13,26,13,218,6,9,6.614292394990629,"[0.1654052734375, 0.1708984375, 0.17303466796875, 0.17303466796875, 0.18798828125, 0.1934814453125, 0.19012451171875, 0.19012451171875, 0.17303466796875, 0.15594482421875, 0.15594482421875, 0.15350341796875, 0.15228271484375, 0.15045166015625, 0.15045166015625, 0.1776123046875, 0.2130126953125, 0.235595703125, 0.235595703125, 0.24658203125, 0.2642822265625, 0.281982421875, 0.281982421875, 0.311279296875, 0.3765869140625, 0.50567626953125, 0.50567626953125, 0.71441650390625, 1.131591796875, 1.43280029296875, 1.64459228515625, 1.64459228515625, 1.83624267578125, 2.076416015625, 2.31903076171875, 2.31903076171875, 2.493896484375, 2.74871826171875, 2.96661376953125, 2.96661376953125, 3.1683349609375, 3.28948974609375, 3.35113525390625, 3.35113525390625, 3.35113525390625, 3.35113525390625, 3.385009765625, 3.385009765625, 3.426513671875, 3.426513671875, 3.51593017578125, 3.51593017578125, 3.54827880859375, 3.54827880859375, 3.54827880859375, 3.54827880859375, 3.538818359375, 3.538818359375, 3.5272216796875, 3.5272216796875, 3.4619140625, 3.4619140625, 3.41339111328125, 3.41339111328125, 3.41339111328125, 3.41339111328125, 3.34381103515625, 3.34381103515625, 3.2769775390625, 3.27606201171875, 3.27606201171875, 3.41644287109375, 3.41644287109375, 3.4527587890625, 3.4527587890625, 3.53973388671875, 3.53973388671875, 3.53057861328125, 3.53057861328125, 3.53057861328125, 3.53057861328125, 3.46099853515625, 3.46099853515625, 3.45733642578125, 3.45733642578125, 3.48052978515625, 3.48052978515625, 3.48052978515625, 3.48052978515625, 3.50616455078125, 3.50616455078125, 3.5076904296875, 3.5076904296875, 3.5272216796875, 3.5272216796875, 3.5272216796875, 3.5272216796875, 3.5430908203125, 3.5430908203125, 3.57421875, 3.57421875, 3.54339599609375, 3.54339599609375, 3.42498779296875, 3.42498779296875, 3.42498779296875, 3.42498779296875, 3.450927734375, 3.450927734375, 3.48236083984375, 3.48236083984375, 3.4893798828125, 3.4893798828125, 3.4588623046875, 3.4588623046875, 3.4588623046875, 3.4588623046875, 3.49517822265625, 3.49517822265625, 3.55865478515625, 3.55865478515625, 3.5418701171875, 3.5418701171875, 3.55560302734375, 3.55560302734375, 3.55560302734375, 3.55560302734375, 3.636474609375, 3.636474609375, 3.64166259765625, 3.64166259765625, 3.60260009765625, 3.60260009765625, 3.60260009765625, 3.60260009765625, 3.6077880859375, 3.6077880859375, 3.64288330078125, 3.64288330078125, 3.72222900390625, 3.72222900390625, 3.7042236328125, 3.7042236328125, 3.6932373046875, 3.6932373046875, 3.6932373046875, 3.6932373046875, 3.74969482421875, 3.74969482421875, 3.77899169921875, 3.77899169921875, 3.7481689453125, 3.7481689453125, 3.7481689453125, 3.7481689453125, 3.6920166015625, 3.6920166015625, 3.69476318359375, 3.69476318359375, 3.74053955078125, 3.74053955078125, 3.7353515625, 3.7353515625, 3.7353515625, 3.7353515625, 3.717041015625, 3.717041015625, 3.731689453125, 3.731689453125, 3.78753662109375, 3.78753662109375, 3.73046875, 3.73046875, 3.73046875, 3.73046875, 3.71917724609375, 3.71917724609375, 3.743896484375, 3.743896484375, 3.746337890625, 3.746337890625, 3.6962890625, 3.6962890625, 3.6962890625, 3.6962890625, 3.67828369140625, 3.67828369140625, 3.65997314453125, 3.65997314453125, 3.65447998046875, 3.65447998046875, 3.65447998046875, 3.65447998046875]",0.31268832722912304,1.7432202197515707,accepted,2.670509699964896,1.9480568999424577
pgACC-TUS-staircase,,1,2024-02-13_15h14.59.819,None,05,,,-0.06103515625,5.44842529296875,5.601704915364583,5.44854736328125,5.525126139322916,5.586161295572916,32,26,12,0,218,9,6,0,"[]",0.35487828933853227,0.6722454944410323,rejected,3.2978741000406444,0
pgACC-TUS-staircase,,1,2024-02-13_15h14.59.819,None,05,,,-0.06103515625,5.44842529296875,5.601704915364583,5.44854736328125,5.525126139322916,5.586161295572916,33,12,24,12,230,6,9,6.575628472848721,"[0.04241943359375, 0.04241943359375, 0.04302978515625, 0.042724609375, 0.0421142578125, 0.0421142578125, 0.0408935546875, 0.0390625, 0.0390625, 0.03204345703125, 0.02777099609375, 0.029296875, 0.029296875, 0.035400390625, 0.04974365234375, 0.07659912109375, 0.07659912109375, 0.093994140625, 0.10589599609375, 0.1177978515625, 0.12420654296875, 0.12420654296875, 0.13336181640625, 0.14251708984375, 0.1531982421875, 0.1531982421875, 0.169677734375, 0.18585205078125, 0.1947021484375, 0.1947021484375, 0.2117919921875, 0.22918701171875, 0.23284912109375, 0.23101806640625, 0.23101806640625, 0.2301025390625, 0.24993896484375, 0.2801513671875, 0.4156494140625, 0.4156494140625, 0.718994140625, 1.2640380859375, 1.639404296875, 1.639404296875, 2.0458984375, 2.371826171875, 2.69073486328125, 2.7899169921875, 2.7899169921875, 2.93243408203125, 3.12744140625, 3.2354736328125, 3.2354736328125, 3.2757568359375, 3.284912109375, 3.27392578125, 3.27392578125, 3.40057373046875, 3.40057373046875, 3.4320068359375, 3.4320068359375, 3.38623046875, 3.38623046875, 3.431396484375, 3.431396484375, 3.431396484375, 3.431396484375, 3.4619140625, 3.4619140625, 3.5479736328125, 3.5479736328125, 3.62152099609375, 3.62152099609375, 3.62152099609375, 3.62152099609375, 3.6981201171875, 3.6981201171875, 3.74603271484375, 3.74603271484375, 3.76129150390625, 3.76129150390625, 3.77655029296875, 3.77655029296875, 3.77655029296875, 3.77655029296875, 3.77471923828125, 3.77471923828125, 3.829345703125, 3.829345703125, 3.79913330078125, 3.79913330078125, 3.86871337890625, 3.86871337890625, 3.86871337890625, 3.86871337890625, 3.8531494140625, 3.8531494140625, 3.70391845703125, 3.70391845703125, 3.6676025390625, 3.6676025390625, 3.6737060546875, 3.6737060546875, 3.6737060546875, 3.6737060546875, 3.59771728515625, 3.59771728515625, 3.53363037109375, 3.53363037109375, 3.580322265625, 3.580322265625, 3.580322265625, 3.580322265625, 3.55560302734375, 3.55560302734375, 3.52264404296875, 3.52264404296875, 3.525390625, 3.525390625, 3.525390625, 3.525390625, 3.531494140625, 3.531494140625, 3.53118896484375, 3.53118896484375, 3.546142578125, 3.546142578125, 3.55499267578125, 3.55499267578125, 3.55499267578125, 3.55499267578125, 3.5498046875, 3.5498046875, 3.5528564453125, 3.5528564453125, 3.56109619140625, 3.56109619140625, 3.56109619140625, 3.56109619140625, 3.6041259765625, 3.6041259765625, 3.5498046875, 3.5498046875, 3.5406494140625, 3.5406494140625, 3.5406494140625, 3.5406494140625, 3.54736328125, 3.54736328125, 3.54888916015625, 3.54888916015625, 3.52813720703125, 3.52813720703125, 3.52813720703125, 3.52813720703125, 3.53424072265625, 3.53424072265625, 3.538818359375, 3.538818359375, 3.55072021484375, 3.55072021484375, 3.52935791015625, 3.52935791015625, 3.52935791015625, 3.52935791015625, 3.55316162109375, 3.55316162109375, 3.555908203125, 3.555908203125, 3.56109619140625, 3.56109619140625, 3.56109619140625, 3.56109619140625, 3.53790283203125, 3.53790283203125, 3.5595703125, 3.5595703125, 3.63311767578125, 3.63311767578125]",0.31301999234718875,-0.7756184161871609,accepted,1.487621100153774,1.9379090000875294
pgACC-TUS-staircase,,1,2024-02-13_15h14.59.819,None,05,,,-0.06103515625,5.44842529296875,5.601704915364583,5.44854736328125,5.525126139322916,5.586161295572916,34,24,8,0,230,9,5,0,"[]",0.31301999234718875,-1.354619380122287,rejected,1.972732099937275,0
pgACC-TUS-staircase,,1,2024-02-13_15h14.59.819,None,05,,,-0.06103515625,5.44842529296875,5.601704915364583,5.44854736328125,5.525126139322916,5.586161295572916,35,8,16,8,238,5,7,5.31739397800207,"[0.00640869140625, 0.01220703125, 0.01220703125, 0.01922607421875, 0.028076171875, 0.028076171875, 0.03570556640625, 0.04638671875, 0.04638671875, 0.0457763671875, 0.04669189453125, 0.05218505859375, 0.05950927734375, 0.05950927734375, 0.06622314453125, 0.06988525390625, 0.07293701171875, 0.07293701171875, 0.07781982421875, 0.09185791015625, 0.1275634765625, 0.1275634765625, 0.3033447265625, 0.58380126953125, 0.93505859375, 1.35833740234375, 1.35833740234375, 1.62689208984375, 1.82159423828125, 1.98272705078125, 1.98272705078125, 2.1478271484375, 2.3114013671875, 2.49664306640625, 2.7056884765625, 2.7056884765625, 2.76092529296875, 2.78717041015625, 2.78717041015625, 2.9510498046875, 2.9510498046875, 3.02398681640625, 3.02398681640625, 3.02398681640625, 3.02398681640625, 3.02032470703125, 3.02032470703125, 3.0047607421875, 3.0047607421875, 3.03466796875, 3.03466796875, 3.03466796875, 3.03466796875, 3.1072998046875, 3.1072998046875, 3.16253662109375, 3.16253662109375, 3.2183837890625, 3.2183837890625, 3.23822021484375, 3.23822021484375, 3.23822021484375, 3.23822021484375, 3.328857421875, 3.328857421875, 3.36395263671875, 3.36395263671875, 3.282470703125, 3.282470703125, 3.193359375, 3.193359375, 3.193359375, 3.193359375, 3.165283203125, 3.165283203125, 3.16162109375, 3.16162109375, 3.16253662109375, 3.16253662109375, 3.16253662109375, 3.16253662109375, 3.1719970703125, 3.1719970703125, 3.1658935546875, 3.1658935546875, 3.10333251953125, 3.10333251953125, 3.0206298828125, 3.0206298828125, 3.0206298828125, 3.0206298828125, 3.0035400390625, 3.0035400390625, 2.97760009765625, 2.97760009765625, 3.02001953125, 3.02001953125, 3.04931640625, 3.04931640625, 3.04931640625, 3.04931640625, 3.00445556640625, 3.00445556640625, 3.01300048828125, 3.01300048828125, 3.096923828125, 3.096923828125, 3.172607421875, 3.172607421875, 3.172607421875, 3.172607421875, 3.271484375, 3.271484375, 3.28094482421875, 3.28094482421875, 3.271484375, 3.271484375, 3.2470703125, 3.2470703125, 3.2470703125, 3.2470703125, 3.2769775390625, 3.2769775390625, 3.260498046875, 3.260498046875, 3.2147216796875, 3.2147216796875, 3.2147216796875, 3.2147216796875, 3.19793701171875, 3.19793701171875, 3.15521240234375, 3.15521240234375, 3.12591552734375, 3.12591552734375, 3.12591552734375, 3.12591552734375, 3.02581787109375, 3.02581787109375, 2.93731689453125, 2.93731689453125, 2.87078857421875, 2.87078857421875, 2.8228759765625, 2.8228759765625, 2.8228759765625, 2.8228759765625, 2.81463623046875, 2.81463623046875, 2.847900390625, 2.847900390625, 2.84149169921875, 2.84149169921875, 2.84149169921875, 2.84149169921875, 2.86529541015625, 2.86529541015625, 2.91107177734375, 2.91107177734375, 2.93792724609375, 2.93792724609375]",0.31301999234718875,0.1745001913202815,accepted,1.1614051000215113,1.6171504999510944
