expName,curec_ID,session_nr,date,end_date,participant,age,gender,gripper_baseline,max_effort_calibration_1,max_effort_calibration_2,max_effort_calibration_3,max_effort,max_effort_baseline_corrected,trial_count,reward_offer,next_reward_offer,reward_earned,total_reward,effort_offer,next_effort_offer,effort_expended,effort_trace,estimated_k,estimated_net_value,participant_response,participant_choice_response_time,participant_effort_response_time
pgACC-TUS-staircase,,1,2024-02-12_14h54.51.912,None,222,,,-0.062255859375,2.151641845703125,2.7447509765625,2.82135009765625,2.783050537109375,2.845306396484375,0,18,None,0,0,6,None,None,[0.13916015625, 0.14007568359375, 0.1416015625, 0.1434326171875, 0.152587890625, 0.167236328125, 0.18524169921875, 0.1861572265625, 0.15411376953125, 0.1422119140625, 0.17669677734375, 0.18218994140625, 0.1995849609375, 0.24078369140625, 0.262451171875, 0.27862548828125, 0.31951904296875, 0.3179931640625, 0.34210205078125, 0.3912353515625, 0.4473876953125, 0.44525146484375, 0.3533935546875, 0.29815673828125, 0.29998779296875, 0.3289794921875, 0.35003662109375, 0.3887939453125, 0.4241943359375, 0.56884765625, 0.70281982421875, 0.736083984375, 0.78826904296875, 0.850830078125, 0.91644287109375, 0.94757080078125, 1.04766845703125, 1.1285400390625, 1.18560791015625, 1.1895751953125, 1.13006591796875, 0.94573974609375, 0.8746337890625, 0.7720947265625, 0.8941650390625, 1.20941162109375, 1.50665283203125, 1.7266845703125, 1.97967529296875, 2.127685546875, 2.1337890625, 2.12371826171875, 2.12127685546875, 2.1270751953125, 2.21282958984375, 2.10845947265625, 2.1600341796875, 2.17254638671875, 2.2137451171875, 2.119140625, 2.13592529296875, 1.1090087890625, 1.2152099609375, 1.3775634765625, 1.60858154296875, 1.64031982421875, 1.76513671875, 1.9354248046875, 2.0184326171875, 2.103271484375, 2.24517822265625, 2.25189208984375, 2.2955322265625, 2.413330078125, 2.50213623046875, 2.60650634765625, 2.65167236328125, 2.66815185546875, 2.67730712890625, 2.68310546875, 2.68646240234375, 2.70233154296875, 2.70965576171875, 2.701416015625, 2.7215576171875, 2.74658203125, 2.8021240234375, 2.73590087890625, 2.71759033203125, 2.70111083984375, 2.68585205078125, 2.6715087890625, 2.6116943359375, 2.59796142578125, 2.57293701171875, 2.540283203125, 2.6251220703125, 1.5045166015625, 1.5997314453125, 1.7327880859375, 1.8292236328125, 1.95892333984375, 2.03582763671875, 2.08282470703125, 2.17193603515625, 2.2723388671875, 2.28912353515625, 2.2119140625, 2.2515869140625, 2.3101806640625, 2.3138427734375, 2.2991943359375, 2.42645263671875, 2.45269775390625, 2.418212890625, 2.47711181640625, 2.51129150390625, 2.50762939453125, 2.43408203125, 2.452392578125, 2.4755859375, 2.510986328125, 2.49176025390625, 2.55645751953125, 2.6837158203125, 2.71484375, 2.73223876953125, 2.781982421875, 2.84149169921875, 2.8314208984375, 2.84423828125, 2.80426025390625, 2.78533935546875, 2.7716064453125, 2.77313232421875, 2.7801513671875, 2.76763916015625, 2.73712158203125, 2.684326171875],0.5,<function <lambda> at 0x0000020C26F28AF0>,None,None,None
pgACC-TUS-staircase,,1,2024-02-12_14h54.51.912,None,222,,,-0.062255859375,2.151641845703125,2.7447509765625,2.82135009765625,2.783050537109375,2.845306396484375,1,6,6,-1,-1,1,1,None,[0.02105712890625, 0.02197265625, 0.02197265625, 0.02197265625, 0.02197265625, 0.0225830078125, 0.0225830078125, 0.02288818359375, 0.0225830078125, 0.0213623046875, 0.0213623046875, 0.0201416015625, 0.020751953125, 0.020751953125, 0.020751953125, 0.02105712890625, 0.02044677734375, 0.0225830078125, 0.0225830078125, 0.02227783203125, 0.02227783203125, 0.0225830078125, 0.0213623046875, 0.0213623046875, 0.0213623046875, 0.02166748046875, 0.0201416015625, 0.0201416015625, 0.02044677734375, 0.02105712890625, 0.0225830078125, 0.0225830078125, 0.02166748046875, 0.023193359375, 0.023193359375, 0.023193359375, 0.02349853515625, 0.02105712890625, 0.02166748046875, 0.02166748046875, 0.02166748046875, 0.01983642578125, 0.0201416015625, 0.02197265625, 0.02197265625, 0.02197265625, 0.0213623046875, 0.02288818359375, 0.02288818359375, 0.02349853515625, 0.02166748046875, 0.02197265625, 0.02197265625, 0.02197265625, 0.02044677734375, 0.02044677734375, 0.02044677734375, 0.02044677734375, 0.02197265625, 0.0213623046875, 0.0213623046875, 0.02288818359375, 0.0225830078125, 0.0225830078125, 0.0225830078125, 0.02197265625, 0.02227783203125, 0.02227783203125, 0.020751953125, 0.020751953125, 0.020751953125, 0.0213623046875, 0.02197265625, 0.02197265625, 0.0213623046875, 0.0225830078125, 0.0225830078125, 0.0225830078125, 0.02288818359375, 0.02227783203125, 0.02197265625, 0.02197265625, 0.02105712890625, 0.020751953125, 0.020751953125, 0.02166748046875, 0.02166748046875, 0.02166748046875, 0.023193359375, 0.023193359375, 0.023193359375, 0.02471923828125, 0.02593994140625, 0.0262451171875, 0.0262451171875, 0.02685546875, 0.028076171875, 0.03387451171875, 0.03387451171875, 0.037841796875, 0.04364013671875, 0.0457763671875, 0.05859375, 0.05859375, 0.07354736328125, 0.08544921875, 0.08544921875, 0.09796142578125, 0.10345458984375, 0.1092529296875, 0.1129150390625, 0.1129150390625, 0.12115478515625, 0.1251220703125, 0.12969970703125, 0.12969970703125, 0.13214111328125, 0.13671875, 0.14312744140625, 0.14312744140625, 0.1458740234375, 0.146484375, 0.14678955078125, 0.14678955078125, 0.1507568359375, 0.164794921875, 0.1873779296875, 0.1873779296875, 0.205078125, 0.21453857421875, 0.22705078125, 0.24658203125, 0.24658203125, 0.25634765625, 0.262451171875, 0.26611328125, 0.26611328125, 0.26824951171875, 0.26641845703125, 0.26519775390625, 0.26519775390625, 0.2642822265625, 0.26214599609375, 0.2618408203125, 0.2618408203125, 0.263671875, 0.269775390625, 0.28167724609375, 0.30426025390625, 0.30426025390625, 0.32073974609375, 0.3302001953125, 0.341796875, 0.341796875, 0.34576416015625, 0.3509521484375, 0.357666015625, 0.357666015625, 0.362548828125, 0.36895751953125, 0.36895751953125, 0.36773681640625, 0.36865234375, 0.3692626953125, 0.37322998046875, 0.37322998046875, 0.38421630859375, 0.39794921875, 0.40771484375, 0.40771484375, 0.41351318359375, 0.4248046875, 0.4351806640625, 0.4351806640625, 0.45379638671875, 0.47454833984375, 0.4901123046875, 0.4901123046875, 0.5010986328125, 0.50445556640625, 0.506591796875, 0.506591796875, 0.506591796875, 0.49896240234375, 0.48431396484375, 0.48431396484375, 0.462646484375, 0.44036865234375, 0.41473388671875, 0.4046630859375, 0.4046630859375, 0.40313720703125, 0.40435791015625, 0.40618896484375, 0.40618896484375, 0.41229248046875, 0.4278564453125, 0.45623779296875, 0.45623779296875, 0.48553466796875, 0.501708984375, 0.5206298828125, 0.5206298828125, 0.52764892578125, 0.51849365234375, 0.50750732421875, 0.50750732421875, 0.49224853515625, 0.4730224609375, 0.4583740234375, 0.4583740234375, 0.44097900390625, 0.43701171875, 0.43914794921875, 0.43914794921875, 0.44097900390625, 0.45501708984375, 0.47607421875, 0.47607421875, 0.50445556640625, 0.5322265625, 0.56732177734375, 0.56732177734375, 0.61614990234375, 0.66864013671875, 0.71380615234375, 0.71380615234375, 0.751953125, 0.8038330078125, 0.885009765625, 0.885009765625, 0.9112548828125, 0.92803955078125, 0.9423828125, 0.9552001953125, 0.9552001953125, 0.968017578125, 1.00494384765625, 1.046142578125, 1.046142578125, 1.0870361328125, 1.10870361328125, 1.119384765625, 1.119384765625, 1.1328125, 1.15081787109375, 1.17950439453125, 1.20819091796875, 1.20819091796875, 1.22650146484375, 1.22711181640625, 1.22711181640625, 1.2322998046875, 1.25152587890625, 1.26495361328125, 1.26495361328125, 1.27044677734375, 1.2774658203125, 1.27227783203125, 1.27227783203125, 1.263427734375, 1.25579833984375, 1.239013671875, 1.22039794921875, 1.22039794921875, 1.22100830078125, 1.21795654296875, 1.2188720703125, 1.2188720703125, 1.221923828125, 1.22344970703125, 1.2249755859375, 1.2249755859375, 1.234130859375, 1.2359619140625, 1.2445068359375, 1.2445068359375, 1.25762939453125, 1.27471923828125, 1.2969970703125, 1.32415771484375, 1.32415771484375, 1.35040283203125, 1.3671875, 1.41448974609375, 1.41448974609375, 1.455078125, 1.49444580078125, 1.5185546875, 1.5185546875, 1.553955078125, 1.60888671875, 1.64886474609375, 1.7059326171875, 1.7059326171875, 1.7059326171875, 1.7059326171875, 1.7816162109375, 1.7816162109375, 1.7852783203125, 1.7852783203125, 1.7596435546875, 1.7596435546875, 1.7596435546875, 1.7596435546875, 1.7364501953125, 1.7364501953125, 1.69464111328125, 1.69464111328125, 1.676025390625, 1.676025390625, 1.676025390625, 1.676025390625, 1.66107177734375, 1.6339111328125, 1.62353515625, 1.62353515625, 1.634521484375, 1.622314453125, 1.590576171875, 1.590576171875, 1.58966064453125, 1.590576171875, 1.60186767578125, 1.60186767578125, 1.61224365234375, 1.62994384765625, 1.6534423828125, 1.6534423828125, 1.65924072265625, 1.6552734375, 1.66015625, 1.66778564453125, 1.66778564453125, 1.67449951171875, 1.67449951171875, 1.6754150390625, 1.6754150390625, 1.65802001953125, 1.65802001953125, 1.6497802734375, 1.65771484375, 1.6741943359375, 1.6741943359375, 1.6741943359375, 1.6741943359375, 1.70806884765625, 1.70806884765625, 1.785888671875, 1.785888671875, 1.82281494140625, 1.82281494140625, 1.82281494140625, 1.82281494140625, 1.83197021484375, 1.83197021484375, 1.8438720703125, 1.8438720703125, 1.8304443359375, 1.8304443359375, 1.8304443359375, 1.8304443359375, 1.842041015625, 1.842041015625, 1.86981201171875, 1.86981201171875, 1.8890380859375, 1.8890380859375, 1.8890380859375, 1.8890380859375, 1.88140869140625, 1.88140869140625, 1.89056396484375, 1.89056396484375, 1.88873291015625, 1.88873291015625, 1.88873291015625, 1.88873291015625, 1.87652587890625, 1.87652587890625, 1.88751220703125, 1.88751220703125, 1.8939208984375, 1.8939208984375, 1.91802978515625, 1.91802978515625, 1.91802978515625, 1.94580078125, 1.94580078125, 1.94580078125, 1.947021484375, 1.947021484375, 1.93939208984375, 1.93939208984375, 1.93939208984375, 1.93939208984375, 1.95770263671875, 1.95770263671875, 1.9732666015625, 1.9732666015625, 1.9696044921875, 1.9696044921875, 1.9696044921875, 1.9696044921875, 1.97784423828125, 1.97784423828125, 1.9732666015625, 1.9732666015625, 1.9647216796875, 1.9647216796875, 1.9647216796875, 1.9647216796875, 1.94091796875, 1.94091796875, 1.89910888671875, 1.89910888671875, 1.82037353515625, 1.82037353515625, 1.661376953125, 1.661376953125, 1.49139404296875, 1.2664794921875, 1.14654541015625, 1.14654541015625, 0.9368896484375, 0.6793212890625, 0.546875, 0.43609619140625, 0.43609619140625, 0.31951904296875, 0.2703857421875, 0.2703857421875, 0.21240234375, 0.17242431640625, 0.14862060546875, 0.14862060546875, 0.130615234375, 0.1171875, 0.10894775390625, 0.10894775390625, 0.1031494140625, 0.0921630859375, 0.08636474609375, 0.08636474609375, 0.08392333984375, 0.081787109375, 0.08087158203125, 0.08087158203125, 0.0823974609375, 0.08087158203125, 0.078125, 0.07781982421875, 0.07781982421875, 0.0750732421875, 0.07232666015625, 0.07080078125, 0.07080078125, 0.06927490234375, 0.0677490234375, 0.06591796875, 0.06591796875, 0.0628662109375, 0.06256103515625, 0.06256103515625, 0.0604248046875, 0.0604248046875, 0.0567626953125, 0.05340576171875, 0.05218505859375, 0.05218505859375, 0.05035400390625, 0.05096435546875, 0.04974365234375, 0.04974365234375, 0.04913330078125, 0.0494384765625, 0.05035400390625, 0.05035400390625, 0.05035400390625, 0.05035400390625, 0.05035400390625, 0.05096435546875, 0.05096435546875, 0.0506591796875, 0.04913330078125, 0.048828125, 0.048828125, 0.04852294921875, 0.04852294921875, 0.048828125, 0.048828125, 0.050048828125, 0.050048828125, 0.05035400390625, 0.05035400390625, 0.050048828125, 0.0506591796875, 0.050048828125, 0.050048828125, 0.04913330078125, 0.048828125, 0.04852294921875, 0.04852294921875, 0.048828125, 0.04852294921875, 0.0506591796875, 0.05035400390625, 0.05035400390625, 0.05035400390625, 0.05035400390625, 0.05096435546875, 0.05096435546875, 0.04852294921875, 0.050048828125, 0.048828125, 0.048828125, 0.04852294921875, 0.0482177734375, 0.048828125, 0.048828125, 0.04974365234375, 0.0494384765625, 0.04974365234375, 0.04974365234375, 0.050048828125, 0.04913330078125, 0.04913330078125, 0.04913330078125, 0.04913330078125, 0.0482177734375],0.5,0.0,accepted,2.066037399927154,None
pgACC-TUS-staircase,,1,2024-02-12_14h54.51.912,None,222,,,-0.062255859375,2.151641845703125,2.7447509765625,2.82135009765625,2.783050537109375,2.845306396484375,2,18,18,6,5,6,6,2.17775097318932,[0.0311279296875, 0.03173828125, 0.0421142578125, 0.0421142578125, 0.0555419921875, 0.06866455078125, 0.07720947265625, 0.07720947265625, 0.0933837890625, 0.11932373046875, 0.14739990234375, 0.14739990234375, 0.2142333984375, 0.26885986328125, 0.3173828125, 0.3173828125, 0.39764404296875, 0.39764404296875, 0.39764404296875, 0.39764404296875, 0.45562744140625, 0.45562744140625, 0.52825927734375, 0.52825927734375, 0.52825927734375, 0.52825927734375, 0.55419921875, 0.55419921875, 0.594482421875, 0.594482421875, 0.60821533203125, 0.60821533203125, 0.60821533203125, 0.60821533203125, 0.61614990234375, 0.61614990234375, 0.62591552734375, 0.62591552734375, 0.63812255859375, 0.63812255859375, 0.6451416015625, 0.6451416015625, 0.6451416015625, 0.6451416015625, 0.64727783203125, 0.64727783203125, 0.65399169921875, 0.65399169921875, 0.6536865234375, 0.6536865234375, 0.6536865234375, 0.6536865234375, 0.653076171875, 0.653076171875, 0.648193359375, 0.648193359375, 0.63995361328125, 0.63995361328125, 0.63995361328125, 0.63995361328125, 0.63018798828125, 0.63018798828125, 0.6195068359375, 0.6195068359375, 0.6072998046875, 0.6072998046875, 0.59967041015625, 0.59967041015625, 0.59967041015625, 0.59967041015625, 0.59295654296875, 0.59295654296875, 0.58929443359375, 0.58929443359375, 0.5841064453125, 0.5841064453125, 0.5841064453125, 0.5841064453125, 0.58380126953125, 0.58380126953125, 0.584716796875, 0.584716796875, 0.5841064453125, 0.5841064453125, 0.5841064453125, 0.5841064453125, 0.58349609375, 0.58349609375, 0.58441162109375, 0.58441162109375, 0.584716796875, 0.584716796875, 0.584716796875, 0.584716796875, 0.58380126953125, 0.58380126953125, 0.58319091796875, 0.58319091796875, 0.58074951171875, 0.58074951171875, 0.58074951171875, 0.58074951171875, 0.57525634765625, 0.57525634765625, 0.57403564453125, 0.57403564453125, 0.58013916015625, 0.58013916015625, 0.58990478515625, 0.58990478515625, 0.58990478515625, 0.58990478515625, 0.5938720703125, 0.5938720703125, 0.59478759765625, 0.59478759765625, 0.59478759765625, 0.59478759765625, 0.59844970703125, 0.59844970703125, 0.60333251953125, 0.60333251953125, 0.60333251953125, 0.60333251953125, 0.60394287109375, 0.60394287109375, 0.60394287109375, 0.60394287109375, 0.604248046875, 0.604248046875, 0.60394287109375, 0.60394287109375, 0.60333251953125, 0.60333251953125, 0.6060791015625, 0.6060791015625, 0.6060791015625, 0.6060791015625],0.5,5.5,accepted,1.706941599957645,None
pgACC-TUS-staircase,,1,2024-02-12_14h54.51.912,None,222,,,-0.062255859375,2.151641845703125,2.7447509765625,2.82135009765625,2.783050537109375,2.845306396484375,3,13,13,18,23,5,5,6.410439168814079,[0.147705078125, 0.19317626953125, 0.233154296875, 0.274658203125, 0.274658203125, 0.32012939453125, 0.3662109375, 0.43701171875, 0.43701171875, 0.48858642578125, 0.52642822265625, 0.56243896484375, 0.56243896484375, 0.6005859375, 0.64544677734375, 0.6854248046875, 0.6854248046875, 0.7208251953125, 0.75225830078125, 0.7958984375, 0.850830078125, 0.850830078125, 0.90576171875, 0.92681884765625, 0.9503173828125, 0.9503173828125, 0.98175048828125, 1.0284423828125, 1.05926513671875, 1.08856201171875, 1.08856201171875, 1.10015869140625, 1.10565185546875, 1.12335205078125, 1.12335205078125, 1.15447998046875, 1.16729736328125, 1.18011474609375, 1.18011474609375, 1.2109375, 1.22589111328125, 1.24267578125, 1.26007080078125, 1.26007080078125, 1.27655029296875, 1.28326416015625, 1.30096435546875, 1.30096435546875, 1.32598876953125, 1.38031005859375, 1.42181396484375, 1.42181396484375, 1.46209716796875, 1.505126953125, 1.53350830078125, 1.53350830078125, 1.546630859375, 1.5533447265625, 1.56707763671875, 1.59454345703125, 1.59454345703125, 1.597900390625, 1.60614013671875, 1.61376953125, 1.61376953125, 1.61376953125, 1.62384033203125, 1.6375732421875, 1.6375732421875, 1.64093017578125, 1.65069580078125, 1.65924072265625, 1.65924072265625, 1.663818359375, 1.66015625, 1.66046142578125, 1.66046142578125, 1.66534423828125, 1.66107177734375, 1.66107177734375, 1.66107177734375, 1.69342041015625, 1.69342041015625, 1.7340087890625, 1.7340087890625, 1.7578125, 1.7578125, 1.80206298828125, 1.80206298828125, 1.80206298828125, 1.80206298828125, 1.824951171875, 1.824951171875, 1.83074951171875, 1.83074951171875, 1.82708740234375, 1.82708740234375, 1.82708740234375, 1.82708740234375, 1.82403564453125, 1.82403564453125, 1.8310546875, 1.8310546875, 1.839599609375, 1.839599609375, 1.839599609375, 1.839599609375, 1.837158203125, 1.837158203125, 1.8414306640625, 1.8414306640625, 1.84814453125, 1.84814453125, 1.85089111328125, 1.85089111328125, 1.85089111328125, 1.85089111328125, 1.84173583984375, 1.84173583984375, 1.84234619140625, 1.84234619140625, 1.85089111328125, 1.85089111328125, 1.85089111328125, 1.85089111328125, 1.87042236328125, 1.87042236328125, 1.88385009765625, 1.88385009765625, 1.88751220703125, 1.88751220703125, 1.88751220703125, 1.88751220703125, 1.890869140625, 1.890869140625, 1.89178466796875, 1.89178466796875, 1.88201904296875, 1.88201904296875, 1.88201904296875, 1.88201904296875, 1.8719482421875, 1.8719482421875, 1.86431884765625, 1.86431884765625, 1.85150146484375, 1.85150146484375, 1.85150146484375, 1.85150146484375, 1.84722900390625, 1.84722900390625, 1.83990478515625, 1.83990478515625, 1.83807373046875, 1.83807373046875, 1.83807373046875, 1.83807373046875, 1.83258056640625, 1.83258056640625, 1.83319091796875, 1.83319091796875, 1.82891845703125, 1.82891845703125, 1.82891845703125, 1.82891845703125, 1.8145751953125, 1.8145751953125, 1.810302734375, 1.810302734375, 1.80999755859375, 1.80999755859375, 1.8096923828125, 1.8096923828125, 1.8096923828125, 1.8096923828125, 1.812744140625, 1.812744140625, 1.81304931640625, 1.81304931640625, 1.8011474609375, 1.8011474609375, 1.8011474609375, 1.8011474609375, 1.79840087890625, 1.79840087890625, 1.79534912109375, 1.79534912109375, 1.79107666015625, 1.79107666015625, 1.79107666015625, 1.79107666015625, 1.7822265625, 1.7822265625, 1.7718505859375, 1.7718505859375, 1.77734375, 1.77734375, 1.78955078125, 1.78955078125, 1.78955078125, 1.78955078125, 1.7840576171875, 1.7840576171875],0.5,0.0,accepted,1.2353169999551028,None
pgACC-TUS-staircase,,1,2024-02-12_14h54.51.912,None,222,,,-0.062255859375,2.151641845703125,2.7447509765625,2.82135009765625,2.783050537109375,2.845306396484375,4,7,7,13,36,4,4,5.48494983277592,[0.11322021484375, 0.13092041015625, 0.1446533203125, 0.174560546875, 0.1983642578125, 0.1983642578125, 0.22064208984375, 0.23895263671875, 0.24810791015625, 0.24810791015625, 0.25421142578125, 0.26397705078125, 0.2801513671875, 0.30548095703125, 0.30548095703125, 0.3399658203125, 0.39764404296875, 0.45074462890625, 0.5242919921875, 0.5242919921875, 0.54718017578125, 0.58837890625, 0.60882568359375, 0.60882568359375, 0.6256103515625, 0.65338134765625, 0.6915283203125, 0.6915283203125, 0.7147216796875, 0.7354736328125, 0.76202392578125, 0.78521728515625, 0.78521728515625, 0.79132080078125, 0.826416015625, 0.855712890625, 0.855712890625, 0.87799072265625, 0.8984375, 0.91766357421875, 0.91766357421875, 0.94146728515625, 0.9716796875, 1.02264404296875, 1.06781005859375, 1.06781005859375, 1.09649658203125, 1.0986328125, 1.097412109375, 1.097412109375, 1.09375, 1.09161376953125, 1.08978271484375, 1.08978271484375, 1.09527587890625, 1.10992431640625, 1.1383056640625, 1.1614990234375, 1.1614990234375, 1.17767333984375, 1.192626953125, 1.22467041015625, 1.22467041015625, 1.2579345703125, 1.287841796875, 1.33026123046875, 1.3531494140625, 1.3531494140625, 1.3702392578125, 1.38031005859375, 1.395263671875, 1.395263671875, 1.395263671875, 1.395263671875, 1.42486572265625, 1.42486572265625, 1.42608642578125, 1.42608642578125, 1.41876220703125, 1.41876220703125, 1.41876220703125, 1.41876220703125, 1.3946533203125, 1.3946533203125, 1.37786865234375, 1.36688232421875, 1.36688232421875, 1.3507080078125, 1.3531494140625, 1.36505126953125, 1.36505126953125, 1.36627197265625, 1.35955810546875, 1.35528564453125, 1.35528564453125, 1.35040283203125, 1.3494873046875, 1.35528564453125, 1.36383056640625, 1.36383056640625, 1.3763427734375, 1.38214111328125, 1.41510009765625, 1.41510009765625, 1.41510009765625, 1.41510009765625, 1.41326904296875, 1.41326904296875, 1.41387939453125, 1.41387939453125, 1.4410400390625, 1.4410400390625, 1.4410400390625, 1.4410400390625, 1.4544677734375, 1.4544677734375, 1.466064453125, 1.466064453125, 1.4923095703125, 1.4923095703125, 1.4923095703125, 1.4923095703125, 1.50054931640625, 1.50054931640625, 1.50482177734375, 1.50482177734375, 1.52069091796875, 1.52069091796875, 1.52069091796875, 1.52069091796875, 1.53076171875, 1.53076171875, 1.52191162109375, 1.52191162109375, 1.539306640625, 1.539306640625, 1.55059814453125, 1.55059814453125, 1.55059814453125, 1.55059814453125, 1.5509033203125, 1.5509033203125, 1.5521240234375, 1.5521240234375, 1.5521240234375, 1.5521240234375, 1.5521240234375, 1.5521240234375, 1.54815673828125, 1.54815673828125, 1.5496826171875, 1.5496826171875, 1.551513671875, 1.551513671875, 1.551513671875, 1.551513671875, 1.56402587890625, 1.56402587890625, 1.56768798828125, 1.56768798828125, 1.56005859375, 1.56005859375, 1.56005859375, 1.56005859375, 1.55853271484375, 1.55853271484375, 1.56219482421875, 1.56219482421875, 1.56158447265625, 1.56158447265625, 1.56158447265625, 1.56158447265625, 1.572265625, 1.572265625, 1.57379150390625, 1.57379150390625, 1.5765380859375, 1.5765380859375, 1.5765380859375, 1.5765380859375, 1.58416748046875, 1.58416748046875, 1.5826416015625, 1.5826416015625, 1.58172607421875, 1.58172607421875, 1.58233642578125, 1.58233642578125, 1.58233642578125, 1.58233642578125, 1.575927734375, 1.575927734375, 1.56646728515625, 1.56646728515625, 1.56646728515625, 1.56646728515625, 1.5484619140625, 1.5484619140625, 1.54754638671875, 1.54754638671875, 1.551513671875, 1.551513671875, 1.54266357421875, 1.54266357421875, 1.54266357421875, 1.54266357421875, 1.5423583984375, 1.5423583984375, 1.54815673828125, 1.54815673828125, 1.5460205078125, 1.5460205078125, 1.5460205078125, 1.5460205078125, 1.5447998046875, 1.5447998046875, 1.544189453125, 1.544189453125, 1.53594970703125, 1.53594970703125, 1.53594970703125, 1.53594970703125, 1.5264892578125, 1.5264892578125],0.5,0.5,accepted,1.6264251000247896,None
pgACC-TUS-staircase,,1,2024-02-12_14h54.51.912,None,222,,,-0.062255859375,2.151641845703125,2.7447509765625,2.82135009765625,2.783050537109375,2.845306396484375,5,6,6,7,43,3,3,4.346729535610505,[0.27435302734375, 0.330810546875, 0.330810546875, 0.38909912109375, 0.430908203125, 0.46844482421875, 0.46844482421875, 0.50872802734375, 0.5389404296875, 0.56610107421875, 0.56610107421875, 0.5975341796875, 0.6231689453125, 0.6585693359375, 0.6585693359375, 0.6884765625, 0.71624755859375, 0.73516845703125, 0.73516845703125, 0.74310302734375, 0.76171875, 0.7867431640625, 0.7867431640625, 0.81085205078125, 0.8355712890625, 0.8624267578125, 0.89996337890625, 0.89996337890625, 0.92498779296875, 0.94818115234375, 0.97076416015625, 0.97076416015625, 1.02630615234375, 1.0821533203125, 1.103515625, 1.103515625, 1.10687255859375, 1.1126708984375, 1.1199951171875, 1.1199951171875, 1.11968994140625, 1.11968994140625, 1.11968994140625, 1.11968994140625, 1.1199951171875, 1.1199951171875, 1.1187744140625, 1.1187744140625, 1.121826171875, 1.121826171875, 1.121826171875, 1.121826171875, 1.12030029296875, 1.12030029296875, 1.112060546875, 1.1065673828125, 1.1065673828125, 1.10137939453125, 1.1029052734375, 1.10382080078125, 1.10382080078125, 1.1114501953125, 1.11419677734375, 1.11419677734375, 1.11419677734375, 1.11419677734375, 1.11541748046875, 1.11541748046875, 1.11541748046875, 1.11541748046875, 1.116943359375, 1.116943359375, 1.12396240234375, 1.12396240234375, 1.142578125, 1.142578125, 1.142578125, 1.142578125, 1.15997314453125, 1.15997314453125, 1.17340087890625, 1.17340087890625, 1.1761474609375, 1.1761474609375, 1.1761474609375, 1.1761474609375, 1.18804931640625, 1.18804931640625, 1.1956787109375, 1.1956787109375, 1.192626953125, 1.192626953125, 1.192626953125, 1.192626953125, 1.18133544921875, 1.18133544921875, 1.17767333984375, 1.17767333984375, 1.1785888671875, 1.1785888671875, 1.1785888671875, 1.1785888671875, 1.18499755859375, 1.18499755859375, 1.1865234375, 1.1865234375, 1.18499755859375, 1.18499755859375, 1.18499755859375, 1.18499755859375, 1.18560791015625, 1.18560791015625, 1.1865234375, 1.1865234375, 1.18377685546875, 1.18377685546875, 1.18377685546875, 1.18377685546875, 1.1846923828125, 1.1846923828125, 1.19598388671875, 1.19598388671875, 1.20269775390625, 1.20269775390625, 1.20269775390625, 1.20269775390625, 1.20269775390625, 1.20269775390625, 1.201171875, 1.201171875, 1.19720458984375, 1.19720458984375, 1.18927001953125, 1.18927001953125, 1.18927001953125, 1.18927001953125, 1.19049072265625, 1.19049072265625, 1.1962890625, 1.1962890625, 1.20697021484375, 1.20697021484375, 1.20697021484375, 1.20697021484375, 1.2091064453125, 1.2091064453125, 1.21551513671875, 1.21551513671875, 1.22894287109375, 1.22894287109375, 1.22894287109375, 1.22894287109375, 1.226806640625, 1.226806640625, 1.2274169921875, 1.2274169921875, 1.23504638671875, 1.23504638671875, 1.2353515625, 1.2353515625, 1.2353515625, 1.2353515625, 1.2335205078125, 1.2335205078125, 1.2322998046875, 1.2322998046875, 1.2322998046875, 1.2322998046875, 1.2310791015625, 1.2310791015625, 1.22955322265625, 1.22955322265625, 1.22283935546875, 1.22283935546875, 1.22283935546875, 1.22283935546875, 1.2152099609375, 1.2152099609375, 1.2127685546875, 1.2127685546875, 1.21185302734375, 1.21185302734375, 1.209716796875, 1.209716796875, 1.209716796875, 1.209716796875],0.4278652479555518,-1.0,accepted,1.852074399823323,None
pgACC-TUS-staircase,,1,2024-02-12_14h54.51.912,None,222,,,-0.062255859375,2.151641845703125,2.7447509765625,2.82135009765625,2.783050537109375,2.845306396484375,6,10,10,6,49,5,5,3.2753988705521135,[0.3546142578125, 0.4052734375, 0.44830322265625, 0.44830322265625, 0.4876708984375, 0.54443359375, 0.58685302734375, 0.6219482421875, 0.6219482421875, 0.68145751953125, 0.72357177734375, 0.7623291015625, 0.7623291015625, 0.80169677734375, 0.84930419921875, 0.84930419921875, 0.89141845703125, 0.89141845703125, 0.90972900390625, 0.90972900390625, 0.90972900390625, 0.90972900390625, 0.9234619140625, 0.9234619140625, 0.94024658203125, 0.94024658203125, 0.9515380859375, 0.9515380859375, 0.9515380859375, 0.9515380859375, 0.9552001953125, 0.9552001953125, 0.9539794921875, 0.9539794921875, 0.95245361328125, 0.95245361328125, 0.946044921875, 0.946044921875, 0.946044921875, 0.946044921875, 0.94085693359375, 0.94085693359375, 0.93475341796875, 0.93475341796875, 0.93475341796875, 0.93475341796875, 0.92041015625, 0.92041015625, 0.91705322265625, 0.91705322265625, 0.9088134765625, 0.9088134765625, 0.9088134765625, 0.9088134765625, 0.90301513671875, 0.90301513671875, 0.902099609375, 0.902099609375, 0.9014892578125, 0.9014892578125, 0.9014892578125, 0.9014892578125, 0.90484619140625, 0.90484619140625, 0.9075927734375, 0.9075927734375, 0.90850830078125, 0.90850830078125, 0.90850830078125, 0.90850830078125, 0.9124755859375, 0.9124755859375, 0.91827392578125, 0.91827392578125, 0.916748046875, 0.916748046875, 0.916748046875, 0.916748046875, 0.91552734375, 0.91552734375, 0.92041015625, 0.92041015625, 0.92254638671875, 0.92254638671875, 0.92254638671875, 0.92254638671875, 0.9222412109375, 0.9222412109375, 0.92254638671875, 0.92254638671875, 0.92315673828125, 0.92315673828125, 0.92315673828125, 0.92315673828125, 0.92010498046875, 0.92010498046875, 0.92010498046875, 0.92010498046875, 0.9197998046875, 0.9197998046875, 0.91705322265625, 0.91705322265625, 0.91705322265625, 0.91705322265625, 0.91552734375, 0.91552734375, 0.91705322265625, 0.91705322265625, 0.91705322265625, 0.91705322265625, 0.91796875, 0.91796875, 0.916748046875, 0.916748046875, 0.916748046875, 0.916748046875, 0.916748046875, 0.916748046875, 0.91461181640625, 0.91461181640625, 0.9112548828125, 0.9112548828125, 0.911865234375, 0.911865234375, 0.91156005859375, 0.91156005859375, 0.91156005859375, 0.91156005859375, 0.90911865234375, 0.90911865234375, 0.90911865234375, 0.90911865234375, 0.91156005859375, 0.91156005859375, 0.91156005859375, 0.91156005859375],0.4278652479555518,2.1492127684000337,accepted,1.0845967000350356,None
pgACC-TUS-staircase,,1,2024-02-12_14h54.51.912,None,222,,,-0.062255859375,2.151641845703125,2.7447509765625,2.82135009765625,2.783050537109375,2.845306396484375,7,12,12,10,59,6,6,5.228356817807994,[0.6256103515625, 0.675048828125, 0.675048828125, 0.7073974609375, 0.72967529296875, 0.72967529296875, 0.75347900390625, 0.777587890625, 0.79315185546875, 0.8319091796875, 0.8319091796875, 0.88836669921875, 0.9124755859375, 0.93658447265625, 0.93658447265625, 0.96923828125, 1.031494140625, 1.060791015625, 1.060791015625, 1.08642578125, 1.114501953125, 1.14227294921875, 1.16424560546875, 1.16424560546875, 1.1920166015625, 1.23626708984375, 1.27044677734375, 1.27044677734375, 1.31317138671875, 1.36138916015625, 1.3873291015625, 1.3873291015625, 1.39892578125, 1.39892578125, 1.3916015625, 1.3916015625, 1.414794921875, 1.414794921875, 1.414794921875, 1.414794921875, 1.43341064453125, 1.43341064453125, 1.4532470703125, 1.4532470703125, 1.468505859375, 1.468505859375, 1.4825439453125, 1.4825439453125, 1.4825439453125, 1.4825439453125, 1.48651123046875, 1.48651123046875, 1.494140625, 1.494140625, 1.4984130859375, 1.4984130859375, 1.4984130859375, 1.4984130859375, 1.49932861328125, 1.49932861328125, 1.505126953125, 1.505126953125, 1.500244140625, 1.500244140625, 1.500244140625, 1.500244140625, 1.4862060546875, 1.4862060546875, 1.4892578125, 1.4892578125, 1.485595703125, 1.485595703125, 1.485595703125, 1.485595703125, 1.4703369140625, 1.4703369140625, 1.45050048828125, 1.45050048828125, 1.4508056640625, 1.4508056640625, 1.4508056640625, 1.4508056640625, 1.44134521484375, 1.44134521484375, 1.43035888671875, 1.43035888671875, 1.43035888671875, 1.43035888671875, 1.43035888671875, 1.43035888671875, 1.42974853515625, 1.42974853515625, 1.436767578125, 1.436767578125, 1.44317626953125, 1.44317626953125, 1.44317626953125, 1.44317626953125, 1.44805908203125, 1.44805908203125, 1.44622802734375, 1.44622802734375, 1.44805908203125, 1.44805908203125, 1.44805908203125, 1.44805908203125, 1.45111083984375, 1.45111083984375, 1.451416015625, 1.451416015625, 1.45294189453125, 1.45294189453125, 1.4569091796875, 1.4569091796875, 1.4569091796875, 1.4569091796875, 1.461181640625, 1.461181640625, 1.45660400390625, 1.45660400390625, 1.4593505859375, 1.4593505859375, 1.4593505859375, 1.4593505859375, 1.475830078125, 1.475830078125, 1.483154296875, 1.483154296875, 1.470947265625, 1.470947265625, 1.470947265625, 1.470947265625, 1.46759033203125, 1.46759033203125, 1.47003173828125, 1.47003173828125, 1.47613525390625, 1.47613525390625, 1.47613525390625, 1.47613525390625, 1.47552490234375, 1.47552490234375, 1.47613525390625, 1.47613525390625, 1.46820068359375, 1.46820068359375, 1.46820068359375, 1.46820068359375, 1.46636962890625, 1.46636962890625, 1.45904541015625, 1.45904541015625, 1.455078125, 1.455078125, 1.455078125, 1.455078125],0.36272107567006406,-0.6966311988887952,accepted,2.0120823001489043,None
pgACC-TUS-staircase,,1,2024-02-12_14h54.51.912,None,222,,,-0.062255859375,2.151641845703125,2.7447509765625,2.82135009765625,2.783050537109375,2.845306396484375,8,23,23,0,59,8,8,5.228356817807994,[],0.36272107567006406,-1.0579587241223063,rejected,2.4586041001603007,None
pgACC-TUS-staircase,,1,2024-02-12_14h54.51.912,None,222,,,-0.062255859375,2.151641845703125,2.7447509765625,2.82135009765625,2.783050537109375,2.845306396484375,9,6,6,23,82,4,4,8.095838587641866,[0.02410888671875, 0.0250244140625, 0.025634765625, 0.0262451171875, 0.0262451171875, 0.02593994140625, 0.025634765625, 0.0262451171875, 0.02655029296875, 0.02655029296875, 0.0244140625, 0.0250244140625, 0.0250244140625, 0.0250244140625, 0.02471923828125, 0.0250244140625, 0.02593994140625, 0.02593994140625, 0.03173828125, 0.05462646484375, 0.07965087890625, 0.07965087890625, 0.12847900390625, 0.17333984375, 0.25177001953125, 0.25177001953125, 0.2838134765625, 0.34210205078125, 0.3985595703125, 0.44708251953125, 0.44708251953125, 0.506591796875, 0.54962158203125, 0.59722900390625, 0.59722900390625, 0.63995361328125, 0.70556640625, 0.743408203125, 0.743408203125, 0.8294677734375, 0.89813232421875, 0.93017578125, 0.9857177734375, 0.9857177734375, 1.082763671875, 1.11663818359375, 1.1578369140625, 1.1578369140625, 1.1883544921875, 1.21856689453125, 1.24908447265625, 1.24908447265625, 1.2725830078125, 1.31927490234375, 1.36138916015625, 1.36138916015625, 1.37481689453125, 1.39312744140625, 1.43646240234375, 1.43646240234375, 1.48162841796875, 1.4935302734375, 1.50115966796875, 1.54388427734375, 1.54388427734375, 1.5673828125, 1.5765380859375, 1.605224609375, 1.6290283203125, 1.6290283203125, 1.64459228515625, 1.66534423828125, 1.66534423828125, 1.7205810546875, 1.7449951171875, 1.7864990234375, 1.7864990234375, 1.8157958984375, 1.8267822265625, 1.83685302734375, 1.8597412109375, 1.8731689453125, 1.8731689453125, 1.90277099609375, 1.93389892578125, 1.95281982421875, 1.95281982421875, 1.96258544921875, 1.98211669921875, 1.98272705078125, 1.98272705078125, 1.98211669921875, 1.983642578125, 1.9989013671875, 1.9989013671875, 2.01385498046875, 2.01934814453125, 2.03033447265625, 2.03033447265625, 2.03125, 2.03582763671875, 2.0562744140625, 2.076416015625, 2.076416015625, 2.09259033203125, 2.12738037109375, 2.12738037109375, 2.14813232421875, 2.16552734375, 2.1661376953125, 2.1551513671875, 2.1551513671875, 2.16522216796875, 2.1661376953125, 2.1661376953125, 2.156982421875, 2.1563720703125, 2.144775390625, 2.144775390625, 2.144775390625, 2.144775390625, 2.15576171875, 2.1551513671875, 2.1551513671875, 2.1685791015625, 2.1722412109375, 2.17864990234375, 2.17864990234375, 2.18902587890625, 2.20977783203125, 2.2265625, 2.2265625, 2.24212646484375, 2.24212646484375, 2.24212646484375, 2.24212646484375, 2.24517822265625, 2.24517822265625, 2.254638671875, 2.254638671875, 2.26837158203125, 2.26837158203125, 2.26837158203125, 2.26837158203125, 2.27996826171875, 2.27996826171875, 2.28363037109375, 2.28363037109375, 2.29583740234375, 2.29583740234375, 2.30987548828125, 2.30987548828125, 2.32421875, 2.32421875, 2.32421875, 2.32421875, 2.332763671875, 2.332763671875, 2.34375, 2.34375, 2.34375, 2.34375, 2.34283447265625, 2.34283447265625, 2.354736328125, 2.354736328125, 2.354736328125, 2.354736328125, 2.35687255859375, 2.35687255859375, 2.35931396484375, 2.35931396484375, 2.35626220703125, 2.35626220703125, 2.35626220703125, 2.35626220703125, 2.33612060546875, 2.33612060546875, 2.32696533203125, 2.32696533203125, 2.32666015625, 2.32666015625, 2.32635498046875, 2.32635498046875, 2.32635498046875, 2.32635498046875, 2.327880859375, 2.327880859375, 2.31658935546875, 2.31658935546875, 2.31689453125, 2.31689453125, 2.31689453125, 2.31689453125, 2.31201171875, 2.31201171875, 2.314453125, 2.314453125, 2.31170654296875, 2.31170654296875, 2.31170654296875, 2.31170654296875, 2.3114013671875, 2.3114013671875, 2.3095703125, 2.3095703125, 2.303466796875, 2.303466796875, 2.303466796875, 2.303466796875, 2.3004150390625, 2.3004150390625, 2.296142578125, 2.296142578125, 2.29583740234375, 2.29583740234375, 2.29766845703125, 2.29766845703125, 2.29766845703125, 2.29766845703125, 2.29949951171875, 2.29949951171875, 2.2869873046875, 2.2869873046875, 2.27508544921875, 2.27508544921875, 2.27508544921875, 2.27508544921875, 2.269287109375, 2.269287109375, 2.2607421875, 2.2607421875, 2.25860595703125, 2.25860595703125, 2.25860595703125, 2.25860595703125, 2.2576904296875, 2.2576904296875, 2.25494384765625, 2.25494384765625, 2.257080078125, 2.257080078125, 2.257080078125, 2.257080078125, 2.2540283203125, 2.2540283203125, 2.2509765625, 2.2509765625, 2.25006103515625, 2.25006103515625, 2.25006103515625, 2.25006103515625, 2.25311279296875, 2.25311279296875],0.30235663501278737,-0.21414884288410008,accepted,0.9236505997832865,None
pgACC-TUS-staircase,,1,2024-02-12_14h54.51.912,None,222,,,-0.062255859375,2.151641845703125,2.7447509765625,2.82135009765625,2.783050537109375,2.845306396484375,10,7,7,6,88,5,5,4.618674269422666,[0.1025390625, 0.18218994140625, 0.18218994140625, 0.23529052734375, 0.2618408203125, 0.30059814453125, 0.33538818359375, 0.33538818359375, 0.367431640625, 0.4248046875, 0.4638671875, 0.4638671875, 0.5084228515625, 0.55084228515625, 0.58563232421875, 0.58563232421875, 0.6243896484375, 0.66375732421875, 0.7080078125, 0.7080078125, 0.7342529296875, 0.76629638671875, 0.8087158203125, 0.88623046875, 0.88623046875, 0.91644287109375, 0.933837890625, 0.9552001953125, 0.9552001953125, 0.966796875, 0.99517822265625, 1.03790283203125, 1.03790283203125, 1.05804443359375, 1.0687255859375, 1.06964111328125, 1.06964111328125, 1.04766845703125, 1.03118896484375, 1.0137939453125, 1.0137939453125, 1.00250244140625, 1.0284423828125, 1.04339599609375, 1.04339599609375, 1.0394287109375, 1.03607177734375, 1.03973388671875, 1.0723876953125, 1.0723876953125, 1.1273193359375, 1.1273193359375, 1.1767578125, 1.1767578125, 1.229248046875, 1.229248046875, 1.229248046875, 1.229248046875, 1.3079833984375, 1.3079833984375, 1.3629150390625, 1.3629150390625, 1.3726806640625, 1.3726806640625, 1.3726806640625, 1.3726806640625, 1.3751220703125, 1.3751220703125, 1.41571044921875, 1.41571044921875, 1.4324951171875, 1.4324951171875, 1.42059326171875, 1.42059326171875, 1.42059326171875, 1.42059326171875, 1.40777587890625, 1.40777587890625, 1.40777587890625, 1.40777587890625, 1.40777587890625, 1.40777587890625, 1.3916015625, 1.3916015625, 1.38763427734375, 1.38763427734375, 1.3739013671875, 1.3739013671875, 1.37176513671875, 1.37176513671875, 1.37176513671875, 1.37176513671875, 1.3775634765625, 1.3775634765625, 1.3775634765625, 1.3775634765625, 1.36932373046875, 1.36932373046875, 1.36932373046875, 1.36932373046875, 1.36962890625, 1.36962890625, 1.3702392578125, 1.3702392578125, 1.36138916015625, 1.36138916015625, 1.35711669921875, 1.35711669921875, 1.35711669921875, 1.35711669921875, 1.35772705078125, 1.35772705078125, 1.3580322265625, 1.3580322265625, 1.3580322265625, 1.3580322265625, 1.3580322265625, 1.3580322265625, 1.36016845703125, 1.36016845703125, 1.3568115234375, 1.3568115234375, 1.34979248046875, 1.34979248046875, 1.34979248046875, 1.34979248046875, 1.34857177734375, 1.34857177734375, 1.34979248046875, 1.34979248046875, 1.34063720703125, 1.34063720703125, 1.34063720703125, 1.34063720703125, 1.32598876953125, 1.32598876953125, 1.336669921875, 1.336669921875, 1.3409423828125, 1.3409423828125, 1.3409423828125, 1.3409423828125, 1.334228515625, 1.334228515625, 1.32965087890625, 1.32965087890625, 1.32568359375, 1.32568359375, 1.32232666015625, 1.32232666015625, 1.32232666015625, 1.32232666015625, 1.30828857421875, 1.30828857421875, 1.31134033203125, 1.31134033203125, 1.31561279296875, 1.31561279296875, 1.30218505859375, 1.30218505859375, 1.30218505859375, 1.30218505859375, 1.2957763671875, 1.2957763671875, 1.2957763671875, 1.2957763671875, 1.28936767578125, 1.28936767578125, 1.285400390625, 1.285400390625, 1.285400390625, 1.285400390625],0.30235663501278737,1.1622938397954021,accepted,0.920104700140655,None
pgACC-TUS-staircase,,1,2024-02-12_14h54.51.912,None,222,,,-0.062255859375,2.151641845703125,2.7447509765625,2.82135009765625,2.783050537109375,2.845306396484375,11,13,13,0,88,7,7,4.618674269422666,[],0.30235663501278737,-0.5589158753196841,rejected,1.2187269998248667,None
pgACC-TUS-staircase,,1,2024-02-12_14h54.51.912,None,222,,,-0.062255859375,2.151641845703125,2.7447509765625,2.82135009765625,2.783050537109375,2.845306396484375,12,24,24,0,88,9,9,4.618674269422666,[],0.30235663501278737,-1.8154751156265814,rejected,1.5060898000374436,None
pgACC-TUS-staircase,,1,2024-02-12_14h54.51.912,None,222,,,-0.062255859375,2.151641845703125,2.7447509765625,2.82135009765625,2.783050537109375,2.845306396484375,13,6,6,24,112,5,5,9.140852020395855,[0.08758544921875, 0.093994140625, 0.10009765625, 0.10009765625, 0.111083984375, 0.1300048828125, 0.13580322265625, 0.13580322265625, 0.1409912109375, 0.1513671875, 0.16448974609375, 0.16448974609375, 0.18402099609375, 0.186767578125, 0.18707275390625, 0.18707275390625, 0.2117919921875, 0.234375, 0.257568359375, 0.257568359375, 0.27252197265625, 0.29876708984375, 0.343017578125, 0.3875732421875, 0.3875732421875, 0.42083740234375, 0.4693603515625, 0.50811767578125, 0.50811767578125, 0.552978515625, 0.59234619140625, 0.6268310546875, 0.6268310546875, 0.70343017578125, 0.75439453125, 0.84716796875, 0.84716796875, 0.92987060546875, 0.98968505859375, 1.10015869140625, 1.10015869140625, 1.14959716796875, 1.2005615234375, 1.24755859375, 1.24755859375, 1.30706787109375, 1.36962890625, 1.43585205078125, 1.47186279296875, 1.47186279296875, 1.4996337890625, 1.52740478515625, 1.553955078125, 1.553955078125, 1.591796875, 1.61895751953125, 1.61895751953125, 1.6510009765625, 1.68182373046875, 1.72607421875, 1.72607421875, 1.76727294921875, 1.802978515625, 1.81915283203125, 1.85272216796875, 1.85272216796875, 1.8853759765625, 1.904296875, 1.93328857421875, 1.9659423828125, 1.9659423828125, 2.0062255859375, 2.03857421875, 2.05841064453125, 2.05841064453125, 2.0684814453125, 2.09747314453125, 2.11822509765625, 2.11822509765625, 2.12646484375, 2.1527099609375, 2.1844482421875, 2.1844482421875, 2.2064208984375, 2.22503662109375, 2.2265625, 2.2265625, 2.23052978515625, 2.24273681640625, 2.25830078125, 2.26470947265625, 2.26470947265625, 2.27447509765625, 2.28271484375, 2.2930908203125, 2.2930908203125, 2.308349609375, 2.315673828125, 2.32818603515625, 2.32818603515625, 2.353515625, 2.3785400390625, 2.39471435546875, 2.39471435546875, 2.41058349609375, 2.42950439453125, 2.43377685546875, 2.43377685546875, 2.42950439453125, 2.42584228515625, 2.42279052734375, 2.42279052734375, 2.4310302734375, 2.43743896484375, 2.44659423828125, 2.44659423828125, 2.45330810546875, 2.454833984375, 2.4560546875, 2.4560546875, 2.45574951171875, 2.45758056640625, 2.4603271484375, 2.464599609375, 2.464599609375, 2.4652099609375, 2.46673583984375, 2.4676513671875, 2.4676513671875, 2.47222900390625, 2.474365234375, 2.47650146484375, 2.47650146484375, 2.48504638671875, 2.5, 2.506103515625, 2.506103515625, 2.506103515625, 2.506103515625, 2.50946044921875, 2.50946044921875, 2.5115966796875, 2.5115966796875, 2.5152587890625, 2.5152587890625, 2.5201416015625, 2.5201416015625, 2.5201416015625, 2.5201416015625, 2.52685546875, 2.52685546875, 2.53662109375, 2.53662109375, 2.53662109375, 2.53662109375, 2.54119873046875, 2.54119873046875, 2.56072998046875, 2.56072998046875, 2.564697265625, 2.564697265625, 2.564697265625, 2.564697265625, 2.5701904296875, 2.5701904296875, 2.5787353515625, 2.5787353515625, 2.589111328125, 2.589111328125, 2.60040283203125, 2.60040283203125, 2.60040283203125, 2.60040283203125, 2.61077880859375, 2.61077880859375, 2.61016845703125, 2.61016845703125, 2.611083984375, 2.611083984375, 2.611083984375, 2.611083984375, 2.61199951171875, 2.61199951171875, 2.6129150390625, 2.6129150390625, 2.613525390625, 2.613525390625, 2.613525390625, 2.613525390625, 2.61260986328125, 2.61260986328125, 2.61383056640625, 2.61383056640625, 2.61688232421875, 2.61688232421875, 2.61688232421875, 2.61688232421875, 2.61688232421875, 2.61688232421875, 2.6190185546875, 2.6190185546875, 2.61993408203125, 2.61993408203125, 2.61993408203125, 2.61993408203125, 2.620849609375, 2.620849609375, 2.61260986328125, 2.61260986328125, 2.58880615234375, 2.58880615234375, 2.569580078125, 2.569580078125, 2.569580078125, 2.569580078125, 2.56927490234375, 2.56927490234375, 2.584228515625, 2.584228515625, 2.5921630859375, 2.5921630859375, 2.5921630859375, 2.5921630859375, 2.58941650390625, 2.58941650390625, 2.5872802734375, 2.5872802734375, 2.5799560546875, 2.5799560546875, 2.5799560546875, 2.5799560546875, 2.569580078125, 2.569580078125, 2.56561279296875, 2.56561279296875, 2.56561279296875, 2.56561279296875, 2.56805419921875, 2.56805419921875, 2.5653076171875, 2.5653076171875, 2.5439453125, 2.5439453125, 2.5439453125, 2.5439453125, 2.5408935546875, 2.5408935546875, 2.5439453125, 2.5439453125, 2.53997802734375, 2.53997802734375, 2.54180908203125, 2.54180908203125, 2.5439453125, 2.5439453125, 2.5439453125, 2.5439453125],0.24825557097945122,-0.4908874360357771,accepted,1.4416129000019282,None
pgACC-TUS-staircase,,1,2024-02-12_14h54.51.912,None,222,,,-0.062255859375,2.151641845703125,2.7447509765625,2.82135009765625,2.783050537109375,2.845306396484375,14,16,16,0,112,8,8,9.140852020395855,[],0.24825557097945122,-0.20638927448628053,rejected,1.1931607997976243,None
pgACC-TUS-staircase,,1,2024-02-12_14h54.51.912,None,222,,,-0.062255859375,2.151641845703125,2.7447509765625,2.82135009765625,2.783050537109375,2.845306396484375,15,6,6,0,112,2,2,9.140852020395855,[],0.30015200941863024,0.11164345731512171,rejected,1.2885832998435944,None
pgACC-TUS-staircase,,1,2024-02-12_14h54.51.912,None,222,,,-0.062255859375,2.151641845703125,2.7447509765625,2.82135009765625,2.783050537109375,2.845306396484375,16,6,6,6,118,3,3,2.583474971215527,[0.07049560546875, 0.0726318359375, 0.0726318359375, 0.0762939453125, 0.0848388671875, 0.09246826171875, 0.10498046875, 0.10498046875, 0.12359619140625, 0.14007568359375, 0.1556396484375, 0.1556396484375, 0.19744873046875, 0.2386474609375, 0.26123046875, 0.26123046875, 0.294189453125, 0.3558349609375, 0.42694091796875, 0.42694091796875, 0.50384521484375, 0.54534912109375, 0.5816650390625, 0.5816650390625, 0.5816650390625, 0.5816650390625, 0.616455078125, 0.616455078125, 0.64727783203125, 0.64727783203125, 0.6781005859375, 0.6781005859375, 0.699462890625, 0.699462890625, 0.699462890625, 0.699462890625, 0.7177734375, 0.7177734375, 0.72418212890625, 0.72418212890625, 0.72418212890625, 0.72418212890625, 0.72418212890625, 0.72418212890625, 0.7257080078125, 0.7257080078125, 0.726318359375, 0.726318359375, 0.7257080078125, 0.7257080078125, 0.7257080078125, 0.7257080078125, 0.72296142578125, 0.72296142578125, 0.718994140625, 0.718994140625, 0.7177734375, 0.7177734375, 0.7177734375, 0.7177734375, 0.7122802734375, 0.7122802734375, 0.70648193359375, 0.70648193359375, 0.70281982421875, 0.70281982421875, 0.70281982421875, 0.70281982421875, 0.70220947265625, 0.70220947265625, 0.70220947265625, 0.70220947265625, 0.69976806640625, 0.69976806640625, 0.69976806640625, 0.69976806640625, 0.7012939453125, 0.7012939453125, 0.70068359375, 0.70068359375, 0.70068359375, 0.70068359375, 0.7000732421875, 0.7000732421875, 0.7000732421875, 0.7000732421875, 0.699462890625, 0.699462890625, 0.7000732421875, 0.7000732421875, 0.70281982421875, 0.70281982421875, 0.7110595703125, 0.7110595703125, 0.7110595703125, 0.7110595703125, 0.716552734375, 0.716552734375, 0.72509765625, 0.72509765625, 0.72509765625, 0.72509765625, 0.72662353515625, 0.72662353515625, 0.7281494140625, 0.7281494140625, 0.73272705078125, 0.73272705078125, 0.73272705078125, 0.73272705078125, 0.73333740234375, 0.73333740234375, 0.7342529296875, 0.7342529296875, 0.73516845703125, 0.73516845703125, 0.73516845703125, 0.73516845703125, 0.7366943359375, 0.7366943359375, 0.7373046875, 0.7373046875, 0.73760986328125, 0.73760986328125, 0.73760986328125, 0.73760986328125, 0.73699951171875, 0.73699951171875, 0.73516845703125, 0.73516845703125, 0.73211669921875, 0.73211669921875, 0.73211669921875, 0.73211669921875, 0.7269287109375, 0.7269287109375, 0.72479248046875, 0.72479248046875, 0.723876953125, 0.723876953125, 0.72052001953125, 0.72052001953125, 0.72052001953125, 0.72052001953125, 0.718994140625, 0.718994140625],0.30015200941863024,4.799391962325479,accepted,1.3822607998736203,None
pgACC-TUS-staircase,,1,2024-02-12_14h54.51.912,None,222,,,-0.062255859375,2.151641845703125,2.7447509765625,2.82135009765625,2.783050537109375,2.845306396484375,17,6,6,6,124,4,4,3.5824332474368115,[0.145263671875, 0.17578125, 0.23712158203125, 0.27069091796875, 0.2996826171875, 0.2996826171875, 0.33294677734375, 0.3778076171875, 0.4278564453125, 0.4278564453125, 0.48797607421875, 0.54107666015625, 0.58135986328125, 0.58135986328125, 0.62713623046875, 0.6768798828125, 0.70892333984375, 0.70892333984375, 0.72784423828125, 0.74462890625, 0.77056884765625, 0.80047607421875, 0.80047607421875, 0.8428955078125, 0.8428955078125, 0.865478515625, 0.865478515625, 0.8563232421875, 0.8563232421875, 0.8563232421875, 0.8563232421875, 0.8477783203125, 0.8477783203125, 0.84228515625, 0.84228515625, 0.83740234375, 0.83740234375, 0.83740234375, 0.83740234375, 0.83251953125, 0.84564208984375, 0.84564208984375, 0.875244140625, 0.875244140625, 0.875244140625, 0.875244140625, 0.8929443359375, 0.8929443359375, 0.8892822265625, 0.8892822265625, 0.885009765625, 0.885009765625, 0.887451171875, 0.887451171875, 0.887451171875, 0.887451171875, 0.887451171875, 0.887451171875, 0.88714599609375, 0.88714599609375, 0.88836669921875, 0.88836669921875, 0.88836669921875, 0.88836669921875, 0.8892822265625, 0.8892822265625, 0.89019775390625, 0.89019775390625, 0.89111328125, 0.89111328125, 0.89111328125, 0.89111328125, 0.89111328125, 0.89111328125, 0.8929443359375, 0.8929443359375, 0.8929443359375, 0.8929443359375, 0.8929443359375, 0.8929443359375, 0.90362548828125, 0.90362548828125, 0.91278076171875, 0.91278076171875, 0.92041015625, 0.92041015625, 0.92926025390625, 0.92926025390625, 0.92926025390625, 0.92926025390625, 0.936279296875, 0.936279296875, 0.94024658203125, 0.94024658203125, 0.94329833984375, 0.94329833984375, 0.948486328125, 0.948486328125, 0.948486328125, 0.948486328125, 0.95672607421875, 0.95672607421875, 0.96466064453125, 0.96466064453125, 0.96466064453125, 0.96466064453125, 0.9747314453125, 0.9747314453125, 0.97869873046875, 0.97869873046875, 0.98388671875, 0.98388671875, 0.98388671875, 0.98388671875, 0.9832763671875, 0.9832763671875, 0.98052978515625, 0.98052978515625, 0.972900390625, 0.972900390625, 0.9661865234375, 0.9661865234375, 0.9661865234375, 0.9661865234375, 0.965576171875, 0.965576171875, 0.963134765625, 0.963134765625, 0.95733642578125, 0.95733642578125, 0.95733642578125, 0.95733642578125, 0.955810546875, 0.955810546875, 0.955810546875, 0.955810546875, 0.95672607421875, 0.95672607421875, 0.95672607421875, 0.95672607421875, 0.95916748046875, 0.95916748046875, 0.9588623046875, 0.9588623046875, 0.9588623046875, 0.9588623046875, 0.968017578125, 0.968017578125, 0.97442626953125, 0.97442626953125, 0.97503662109375, 0.97503662109375, 0.98175048828125, 0.98175048828125, 0.98175048828125, 0.98175048828125, 0.9954833984375, 0.9954833984375, 0.99884033203125, 0.99884033203125, 0.99700927734375, 0.99700927734375],0.30015200941863024,3.298631915232328,accepted,1.02420759992674,None
pgACC-TUS-staircase,,1,2024-02-12_14h54.51.912,None,222,,,-0.062255859375,2.151641845703125,2.7447509765625,2.82135009765625,2.783050537109375,2.845306396484375,18,23,23,6,130,9,9,4.272164044081364,[0.26824951171875, 0.38299560546875, 0.38299560546875, 0.4791259765625, 0.53924560546875, 0.595703125, 0.595703125, 0.66741943359375, 0.71929931640625, 0.75347900390625, 0.79498291015625, 0.79498291015625, 0.8343505859375, 0.89019775390625, 0.91583251953125, 0.91583251953125, 0.94818115234375, 0.9747314453125, 1.009521484375, 1.009521484375, 1.04949951171875, 1.0784912109375, 1.094970703125, 1.094970703125, 1.103515625, 1.1175537109375, 1.1175537109375, 1.13616943359375, 1.13616943359375, 1.13616943359375, 1.13616943359375, 1.15020751953125, 1.15020751953125, 1.1480712890625, 1.1480712890625, 1.15020751953125, 1.15020751953125, 1.16973876953125, 1.16973876953125, 1.16973876953125, 1.16973876953125, 1.19293212890625, 1.19293212890625, 1.19781494140625, 1.19781494140625, 1.19384765625, 1.19384765625, 1.19384765625, 1.19384765625, 1.195068359375, 1.195068359375, 1.20819091796875, 1.20819091796875, 1.21673583984375, 1.21673583984375, 1.21673583984375, 1.21673583984375, 1.2164306640625, 1.2164306640625, 1.21734619140625, 1.21734619140625, 1.21551513671875, 1.21551513671875, 1.20697021484375, 1.20697021484375, 1.20697021484375, 1.20697021484375, 1.2005615234375, 1.2005615234375, 1.1932373046875, 1.1932373046875, 1.19232177734375, 1.19232177734375, 1.19232177734375, 1.19232177734375, 1.19232177734375, 1.19232177734375, 1.19781494140625, 1.19781494140625, 1.19873046875, 1.19873046875, 1.19873046875, 1.19873046875, 1.1981201171875, 1.1981201171875, 1.2078857421875, 1.2078857421875, 1.21002197265625, 1.21002197265625, 1.20697021484375, 1.20697021484375, 1.20697021484375, 1.20697021484375, 1.20697021484375, 1.20697021484375, 1.209716796875, 1.209716796875, 1.20819091796875, 1.20819091796875, 1.20819091796875, 1.20819091796875, 1.20635986328125, 1.20635986328125, 1.2030029296875, 1.2030029296875, 1.197509765625, 1.197509765625, 1.197509765625, 1.197509765625, 1.1944580078125, 1.1944580078125, 1.192626953125, 1.192626953125, 1.190185546875, 1.190185546875, 1.190185546875, 1.190185546875, 1.195068359375, 1.195068359375, 1.199951171875, 1.199951171875, 1.20361328125, 1.20361328125, 1.202392578125, 1.202392578125, 1.202392578125, 1.202392578125, 1.20086669921875, 1.20086669921875, 1.20086669921875, 1.20086669921875, 1.2005615234375, 1.2005615234375, 1.2005615234375, 1.2005615234375, 1.201171875, 1.201171875, 1.20391845703125, 1.20391845703125, 1.20208740234375, 1.20208740234375, 1.1968994140625, 1.1968994140625, 1.1968994140625, 1.1968994140625, 1.18896484375, 1.18896484375],0.30015200941863024,1.1975678493019162,accepted,0.8609513998962939,None
pgACC-TUS-staircase,,1,2024-02-12_14h54.51.912,None,222,,,-0.062255859375,2.151641845703125,2.7447509765625,2.82135009765625,2.783050537109375,2.845306396484375,19,6,6,0,130,3,3,4.272164044081364,[],0.30015200941863024,-1.3123127629090483,rejected,1.6322051000315696,None
pgACC-TUS-staircase,,1,2024-02-12_14h54.51.912,None,222,,,-0.062255859375,2.151641845703125,2.7447509765625,2.82135009765625,2.783050537109375,2.845306396484375,20,6,6,6,136,2,2,3.2271506113273754,[0.1300048828125, 0.23345947265625, 0.23345947265625, 0.2655029296875, 0.29571533203125, 0.3436279296875, 0.3436279296875, 0.401611328125, 0.46295166015625, 0.517578125, 0.517578125, 0.54229736328125, 0.57647705078125, 0.60516357421875, 0.6390380859375, 0.68328857421875, 0.68328857421875, 0.71990966796875, 0.75592041015625, 0.79132080078125, 0.79132080078125, 0.84716796875, 0.84716796875, 0.88836669921875, 0.88836669921875, 0.90545654296875, 0.90545654296875, 0.90545654296875, 0.90545654296875, 0.9161376953125, 0.9161376953125, 0.931396484375, 0.931396484375, 0.9375, 0.9375, 0.9375, 0.9375, 0.9332275390625, 0.9332275390625, 0.928955078125, 0.928955078125, 0.92803955078125, 0.92803955078125, 0.9228515625, 0.9228515625, 0.9228515625, 0.9228515625, 0.9234619140625, 0.9234619140625, 0.92681884765625, 0.92681884765625, 0.92803955078125, 0.92803955078125, 0.9283447265625, 0.9283447265625, 0.92742919921875, 0.92742919921875, 0.92742919921875, 0.92742919921875, 0.92742919921875, 0.92742919921875, 0.92681884765625, 0.92681884765625, 0.92926025390625, 0.92926025390625, 0.92926025390625, 0.92926025390625, 0.931396484375, 0.931396484375, 0.93017578125, 0.93017578125, 0.9283447265625, 0.9283447265625, 0.9283447265625, 0.9283447265625, 0.9326171875, 0.9326171875, 0.9381103515625, 0.9381103515625, 0.9375, 0.9375, 0.93658447265625, 0.93658447265625, 0.93658447265625, 0.93658447265625, 0.93658447265625, 0.93658447265625, 0.93719482421875, 0.93719482421875, 0.933837890625, 0.933837890625, 0.9283447265625, 0.9283447265625, 0.9283447265625, 0.9283447265625, 0.93048095703125, 0.93048095703125, 0.93109130859375, 0.93109130859375, 0.92926025390625, 0.92926025390625, 0.92926025390625, 0.92926025390625, 0.92681884765625, 0.92681884765625, 0.926513671875, 0.926513671875, 0.92071533203125, 0.92071533203125, 0.92071533203125, 0.92071533203125, 0.91796875, 0.91796875, 0.91552734375, 0.91552734375, 0.91217041015625, 0.91217041015625, 0.91217041015625, 0.91217041015625, 0.91033935546875, 0.91033935546875, 0.90972900390625, 0.90972900390625, 0.90789794921875, 0.90789794921875, 0.90667724609375, 0.90667724609375, 0.90667724609375, 0.90667724609375, 0.9075927734375, 0.9075927734375, 0.9033203125, 0.9033203125, 0.9033203125, 0.9033203125, 0.90118408203125, 0.90118408203125, 0.8984375, 0.8984375, 0.8984375, 0.8984375, 0.89813232421875, 0.89813232421875],0.30015200941863024,3.298631915232328,accepted,1.057127600070089,None
pgACC-TUS-staircase,,1,2024-02-12_14h54.51.912,None,222,,,-0.062255859375,2.151641845703125,2.7447509765625,2.82135009765625,2.783050537109375,2.845306396484375,21,14,14,6,142,7,7,2.77646800811448,[0.0250244140625, 0.02593994140625, 0.02593994140625, 0.02655029296875, 0.02685546875, 0.02685546875, 0.02593994140625, 0.0262451171875, 0.02532958984375, 0.0250244140625, 0.0250244140625, 0.025634765625, 0.025634765625, 0.0262451171875, 0.0262451171875, 0.03448486328125, 0.05035400390625, 0.07171630859375, 0.1025390625, 0.1025390625, 0.13153076171875, 0.15838623046875, 0.15838623046875, 0.23101806640625, 0.2685546875, 0.3216552734375, 0.3887939453125, 0.3887939453125, 0.45501708984375, 0.52154541015625, 0.57769775390625, 0.57769775390625, 0.615234375, 0.615234375, 0.615234375, 0.615234375, 0.66650390625, 0.66650390625, 0.70648193359375, 0.70648193359375, 0.7269287109375, 0.7269287109375, 0.7269287109375, 0.7269287109375, 0.7476806640625, 0.7476806640625, 0.78033447265625, 0.78033447265625, 0.8111572265625, 0.8111572265625, 0.8111572265625, 0.8111572265625, 0.83953857421875, 0.83953857421875, 0.8447265625, 0.8447265625, 0.8447265625, 0.8447265625, 0.84259033203125, 0.84259033203125, 0.8416748046875, 0.8416748046875, 0.8489990234375, 0.8489990234375, 0.843505859375, 0.843505859375, 0.843505859375, 0.843505859375, 0.83404541015625, 0.83404541015625, 0.83770751953125, 0.83770751953125, 0.830078125, 0.830078125, 0.79833984375, 0.79833984375, 0.79833984375, 0.79833984375, 0.7855224609375, 0.7855224609375, 0.77667236328125, 0.77667236328125, 0.77667236328125, 0.77667236328125, 0.76690673828125, 0.76690673828125, 0.76019287109375, 0.76019287109375, 0.7562255859375, 0.7562255859375, 0.75408935546875, 0.75408935546875, 0.75408935546875, 0.75408935546875, 0.75469970703125, 0.75469970703125, 0.75958251953125, 0.75958251953125, 0.7598876953125, 0.7598876953125, 0.7598876953125, 0.7598876953125, 0.7586669921875, 0.7586669921875, 0.75958251953125, 0.75958251953125, 0.760498046875, 0.760498046875, 0.760498046875, 0.760498046875, 0.7611083984375, 0.7611083984375, 0.76141357421875, 0.76141357421875, 0.7623291015625, 0.7623291015625, 0.760498046875, 0.760498046875, 0.760498046875, 0.760498046875, 0.76080322265625, 0.76080322265625, 0.762939453125, 0.762939453125, 0.7635498046875, 0.7635498046875, 0.7635498046875, 0.7635498046875, 0.76690673828125, 0.76690673828125, 0.76812744140625, 0.76812744140625, 0.76873779296875, 0.76873779296875, 0.76873779296875, 0.76873779296875, 0.771484375, 0.771484375, 0.77117919921875, 0.77117919921875, 0.771484375, 0.771484375, 0.771484375, 0.771484375, 0.772705078125, 0.772705078125, 0.772705078125, 0.772705078125, 0.77362060546875, 0.77362060546875, 0.772705078125, 0.772705078125],0.30015200941863024,4.799391962325479,accepted,1.572854199912399,None
pgACC-TUS-staircase,,1,2024-02-12_14h54.51.912,None,222,,,-0.062255859375,2.151641845703125,2.7447509765625,2.82135009765625,2.783050537109375,2.845306396484375,22,6,6,0,142,2,2,2.77646800811448,[],0.30015200941863024,-0.7074484615128824,rejected,1.2475517999846488,None
pgACC-TUS-staircase,,1,2024-02-12_14h54.51.912,None,222,,,-0.062255859375,2.151641845703125,2.7447509765625,2.82135009765625,2.783050537109375,2.845306396484375,23,6,6,6,148,3,3,2.451888809693514,[0.02105712890625, 0.020751953125, 0.020751953125, 0.020751953125, 0.020751953125, 0.02105712890625, 0.02105712890625, 0.0201416015625, 0.0201416015625, 0.020751953125, 0.0201416015625, 0.02044677734375, 0.0201416015625, 0.0201416015625, 0.020751953125, 0.0299072265625, 0.0299072265625, 0.03662109375, 0.0433349609375, 0.0732421875, 0.09918212890625, 0.09918212890625, 0.13458251953125, 0.15411376953125, 0.19195556640625, 0.19195556640625, 0.24017333984375, 0.26031494140625, 0.2789306640625, 0.2789306640625, 0.33172607421875, 0.38116455078125, 0.43701171875, 0.43701171875, 0.4705810546875, 0.4937744140625, 0.51513671875, 0.51513671875, 0.52886962890625, 0.53466796875, 0.53802490234375, 0.54473876953125, 0.54473876953125, 0.546875, 0.5523681640625, 0.55908203125, 0.55908203125, 0.55908203125, 0.55908203125, 0.5633544921875, 0.5633544921875, 0.57159423828125, 0.57159423828125, 0.57647705078125, 0.57647705078125, 0.57647705078125, 0.57647705078125, 0.57647705078125, 0.57647705078125, 0.57708740234375, 0.57708740234375, 0.5853271484375, 0.5853271484375, 0.59112548828125, 0.59112548828125, 0.59112548828125, 0.59112548828125, 0.59051513671875, 0.59051513671875, 0.59234619140625, 0.59234619140625, 0.601806640625, 0.601806640625, 0.601806640625, 0.601806640625, 0.62042236328125, 0.62042236328125, 0.63507080078125, 0.63507080078125, 0.6512451171875, 0.6512451171875, 0.6512451171875, 0.6512451171875, 0.65216064453125, 0.65216064453125, 0.6561279296875, 0.6561279296875, 0.67108154296875, 0.67108154296875, 0.67962646484375, 0.67962646484375, 0.67962646484375, 0.67962646484375, 0.6787109375, 0.6787109375, 0.6781005859375, 0.6781005859375, 0.6781005859375, 0.6781005859375, 0.6781005859375, 0.6781005859375, 0.67962646484375, 0.67962646484375, 0.6793212890625, 0.6793212890625, 0.6793212890625, 0.6793212890625, 0.6793212890625, 0.6793212890625, 0.6805419921875, 0.6805419921875, 0.6805419921875, 0.6805419921875, 0.679931640625, 0.679931640625, 0.68023681640625, 0.68023681640625, 0.68023681640625, 0.68023681640625, 0.6793212890625, 0.6793212890625, 0.67840576171875, 0.67840576171875, 0.67840576171875, 0.67840576171875, 0.67840576171875, 0.67840576171875, 0.67840576171875, 0.67840576171875, 0.68023681640625, 0.68023681640625, 0.6829833984375, 0.6829833984375, 0.6829833984375, 0.6829833984375, 0.68359375, 0.68359375, 0.68634033203125, 0.68634033203125, 0.6890869140625, 0.6890869140625, 0.6890869140625, 0.6890869140625, 0.6878662109375, 0.6878662109375, 0.68756103515625, 0.68756103515625, 0.68572998046875, 0.68572998046875, 0.68572998046875, 0.68572998046875, 0.68572998046875, 0.68572998046875, 0.6854248046875, 0.6854248046875, 0.68603515625, 0.68603515625, 0.68603515625, 0.68603515625, 0.6842041015625, 0.6842041015625, 0.6854248046875, 0.6854248046875, 0.68359375, 0.68359375, 0.682373046875, 0.682373046875],0.30015200941863024,4.799391962325479,accepted,1.1752318998333067,None
pgACC-TUS-staircase,,1,2024-02-12_14h54.51.912,None,222,,,-0.062255859375,2.151641845703125,2.7447509765625,2.82135009765625,2.783050537109375,2.845306396484375,24,10,10,6,154,6,6,3.2150885465211907,[0.02166748046875, 0.02166748046875, 0.0225830078125, 0.03662109375, 0.05523681640625, 0.05523681640625, 0.07720947265625, 0.10009765625, 0.13427734375, 0.13427734375, 0.19317626953125, 0.2545166015625, 0.302734375, 0.37506103515625, 0.37506103515625, 0.44677734375, 0.5023193359375, 0.5560302734375, 0.5560302734375, 0.5950927734375, 0.62042236328125, 0.6494140625, 0.6494140625, 0.68450927734375, 0.71380615234375, 0.74249267578125, 0.74249267578125, 0.775146484375, 0.80596923828125, 0.8349609375, 0.8349609375, 0.84869384765625, 0.84869384765625, 0.84869384765625, 0.84869384765625, 0.875244140625, 0.875244140625, 0.88958740234375, 0.88958740234375, 0.89111328125, 0.89111328125, 0.89111328125, 0.89111328125, 0.89263916015625, 0.89263916015625, 0.89569091796875, 0.89569091796875, 0.902099609375, 0.902099609375, 0.902099609375, 0.902099609375, 0.90484619140625, 0.90484619140625, 0.90545654296875, 0.90545654296875, 0.904541015625, 0.904541015625, 0.904541015625, 0.904541015625, 0.9027099609375, 0.9027099609375, 0.9002685546875, 0.9002685546875, 0.89996337890625, 0.89996337890625, 0.89599609375, 0.89599609375, 0.89599609375, 0.89599609375, 0.8935546875, 0.8935546875, 0.89263916015625, 0.89263916015625, 0.894775390625, 0.894775390625, 0.894775390625, 0.894775390625, 0.89691162109375, 0.89691162109375, 0.89508056640625, 0.89508056640625, 0.8990478515625, 0.8990478515625, 0.8990478515625, 0.8990478515625, 0.9014892578125, 0.9014892578125, 0.904541015625, 0.904541015625, 0.90545654296875, 0.90545654296875, 0.90545654296875, 0.90545654296875, 0.90484619140625, 0.90484619140625, 0.90301513671875, 0.90301513671875, 0.90301513671875, 0.90301513671875, 0.90087890625, 0.90087890625, 0.8990478515625, 0.8990478515625, 0.8990478515625, 0.8990478515625, 0.89874267578125, 0.89874267578125, 0.89874267578125, 0.89874267578125, 0.8966064453125, 0.8966064453125, 0.89691162109375, 0.89691162109375, 0.8984375, 0.8984375, 0.8984375, 0.8984375, 0.8978271484375, 0.8978271484375, 0.8984375, 0.8984375, 0.899658203125, 0.899658203125, 0.899658203125, 0.899658203125, 0.9002685546875, 0.9002685546875, 0.90057373046875, 0.90057373046875, 0.89874267578125, 0.89874267578125, 0.89874267578125, 0.89874267578125, 0.89813232421875, 0.89813232421875, 0.8984375, 0.8984375, 0.89813232421875, 0.89813232421875, 0.89752197265625, 0.89752197265625, 0.8941650390625, 0.8941650390625, 0.8941650390625, 0.8941650390625, 0.8929443359375, 0.8929443359375, 0.89447021484375, 0.89447021484375, 0.894775390625, 0.894775390625],0.30015200941863024,3.298631915232328,accepted,0.9817904999945313,None
pgACC-TUS-staircase,,1,2024-02-12_14h54.51.912,None,222,,,-0.062255859375,2.151641845703125,2.7447509765625,2.82135009765625,2.783050537109375,2.845306396484375,25,6,6,0,154,4,4,3.2150885465211907,[],0.30015200941863024,-0.8054723390706879,rejected,1.2981792001519352,None
pgACC-TUS-staircase,,1,2024-02-12_14h54.51.912,None,222,,,-0.062255859375,2.151641845703125,2.7447509765625,2.82135009765625,2.783050537109375,2.845306396484375,26,7,7,6,160,5,5,4.3544053950326225,[0.02471923828125, 0.02532958984375, 0.02471923828125, 0.02960205078125, 0.02960205078125, 0.04547119140625, 0.06134033203125, 0.074462890625, 0.074462890625, 0.0982666015625, 0.12969970703125, 0.15777587890625, 0.15777587890625, 0.22735595703125, 0.26611328125, 0.31280517578125, 0.31280517578125, 0.36041259765625, 0.4327392578125, 0.48583984375, 0.48583984375, 0.528564453125, 0.56304931640625, 0.59722900390625, 0.62225341796875, 0.62225341796875, 0.6591796875, 0.70556640625, 0.72174072265625, 0.72174072265625, 0.76751708984375, 0.84075927734375, 0.9100341796875, 0.9100341796875, 0.93841552734375, 0.97015380859375, 1.04888916015625, 1.04888916015625, 1.09710693359375, 1.114501953125, 1.114501953125, 1.13006591796875, 1.13006591796875, 1.14990234375, 1.14990234375, 1.14990234375, 1.14990234375, 1.16729736328125, 1.16729736328125, 1.16729736328125, 1.16729736328125, 1.168212890625, 1.168212890625, 1.1798095703125, 1.1798095703125, 1.1798095703125, 1.1798095703125, 1.19140625, 1.19140625, 1.20330810546875, 1.20330810546875, 1.21795654296875, 1.21795654296875, 1.21795654296875, 1.21795654296875, 1.23931884765625, 1.23931884765625, 1.241455078125, 1.241455078125, 1.23321533203125, 1.23321533203125, 1.23321533203125, 1.23321533203125, 1.23321533203125, 1.23321533203125, 1.22589111328125, 1.22589111328125, 1.21917724609375, 1.21917724609375, 1.21917724609375, 1.21917724609375, 1.23138427734375, 1.23138427734375, 1.236572265625, 1.236572265625, 1.2310791015625, 1.2310791015625, 1.2249755859375, 1.2249755859375, 1.2249755859375, 1.2249755859375, 1.22222900390625, 1.22222900390625, 1.22222900390625, 1.22222900390625, 1.2152099609375, 1.2152099609375, 1.2152099609375, 1.2152099609375, 1.21246337890625, 1.21246337890625, 1.2127685546875, 1.2127685546875, 1.21246337890625, 1.21246337890625, 1.21246337890625, 1.21246337890625, 1.20819091796875, 1.20819091796875, 1.19903564453125, 1.19903564453125, 1.1956787109375, 1.1956787109375, 1.1956787109375, 1.1956787109375, 1.19476318359375, 1.19476318359375, 1.1920166015625, 1.1920166015625, 1.1932373046875, 1.1932373046875, 1.1968994140625, 1.1968994140625, 1.1968994140625, 1.1968994140625, 1.19659423828125, 1.19659423828125, 1.1907958984375, 1.1907958984375, 1.1907958984375, 1.1907958984375, 1.19293212890625, 1.19293212890625, 1.192626953125, 1.192626953125, 1.18804931640625, 1.18804931640625, 1.19476318359375, 1.19476318359375, 1.19476318359375, 1.19476318359375, 1.20849609375, 1.20849609375, 1.2139892578125, 1.2139892578125, 1.21307373046875, 1.21307373046875, 1.21307373046875, 1.21307373046875, 1.21368408203125, 1.21368408203125, 1.217041015625, 1.217041015625, 1.21551513671875, 1.21551513671875, 1.21551513671875, 1.21551513671875, 1.20941162109375, 1.20941162109375, 1.20849609375, 1.20849609375, 1.21185302734375, 1.21185302734375],0.30015200941863024,1.1975678493019162,accepted,1.6542811000254005,None
pgACC-TUS-staircase,,1,2024-02-12_14h54.51.912,None,222,,,-0.062255859375,2.151641845703125,2.7447509765625,2.82135009765625,2.783050537109375,2.845306396484375,27,6,6,7,167,2,2,5.35555677394594,[0.086669921875, 0.1617431640625, 0.1617431640625, 0.2197265625, 0.2593994140625, 0.28106689453125, 0.28106689453125, 0.313720703125, 0.34454345703125, 0.3900146484375, 0.42022705078125, 0.42022705078125, 0.46051025390625, 0.50933837890625, 0.54107666015625, 0.54107666015625, 0.56243896484375, 0.606689453125, 0.64056396484375, 0.68328857421875, 0.68328857421875, 0.716552734375, 0.7501220703125, 0.7501220703125, 0.819091796875, 0.8929443359375, 0.94085693359375, 0.94085693359375, 0.98114013671875, 1.0845947265625, 1.11541748046875, 1.14044189453125, 1.14044189453125, 1.1767578125, 1.20147705078125, 1.22711181640625, 1.22711181640625, 1.2493896484375, 1.2713623046875, 1.30218505859375, 1.30218505859375, 1.32476806640625, 1.35589599609375, 1.383056640625, 1.383056640625, 1.39129638671875, 1.39404296875, 1.39404296875, 1.42547607421875, 1.42547607421875, 1.42547607421875, 1.42547607421875, 1.43096923828125, 1.43096923828125, 1.40716552734375, 1.40716552734375, 1.40777587890625, 1.40777587890625, 1.431884765625, 1.431884765625, 1.431884765625, 1.431884765625, 1.44287109375, 1.44287109375, 1.44287109375, 1.44287109375, 1.44287109375, 1.44287109375, 1.44866943359375, 1.44866943359375, 1.47430419921875, 1.47430419921875, 1.4910888671875, 1.4910888671875, 1.49169921875, 1.49169921875, 1.49169921875, 1.49169921875, 1.4935302734375, 1.4935302734375, 1.49688720703125, 1.49688720703125, 1.5020751953125, 1.5020751953125, 1.513671875, 1.513671875, 1.513671875, 1.513671875, 1.52679443359375, 1.52679443359375, 1.51519775390625, 1.51519775390625, 1.51519775390625, 1.51519775390625, 1.50543212890625, 1.50543212890625, 1.514892578125, 1.514892578125, 1.5277099609375, 1.5277099609375, 1.5277099609375, 1.5277099609375, 1.5289306640625, 1.5289306640625, 1.5203857421875, 1.5203857421875, 1.52984619140625, 1.52984619140625, 1.52984619140625, 1.52984619140625, 1.53289794921875, 1.53289794921875, 1.51824951171875, 1.51824951171875, 1.52862548828125, 1.52862548828125, 1.534423828125, 1.534423828125, 1.534423828125, 1.534423828125, 1.53411865234375, 1.53411865234375, 1.5289306640625, 1.5289306640625, 1.51397705078125, 1.51397705078125, 1.51397705078125, 1.51397705078125, 1.5093994140625, 1.5093994140625, 1.50238037109375, 1.50238037109375, 1.50238037109375, 1.50238037109375, 1.50115966796875, 1.50115966796875, 1.50115966796875, 1.50115966796875, 1.49993896484375, 1.49993896484375, 1.50390625, 1.50390625, 1.50390625, 1.50390625, 1.512451171875, 1.512451171875, 1.5106201171875, 1.5106201171875, 1.5106201171875, 1.5106201171875, 1.5008544921875, 1.5008544921875, 1.488037109375, 1.488037109375, 1.48468017578125, 1.48468017578125, 1.48223876953125, 1.48223876953125, 1.48773193359375, 1.48773193359375, 1.48773193359375, 1.48773193359375, 1.4910888671875, 1.4910888671875, 1.49017333984375, 1.49017333984375, 1.49017333984375, 1.49017333984375, 1.490478515625, 1.490478515625],0.25604989384934934,-0.5038002354657563,accepted,1.530017300043255,None
pgACC-TUS-staircase,,1,2024-02-12_14h54.51.912,None,222,,,-0.062255859375,2.151641845703125,2.7447509765625,2.82135009765625,2.783050537109375,2.845306396484375,28,20,20,6,173,9,9,2.583474971215527,[0.11627197265625, 0.14190673828125, 0.14190673828125, 0.1617431640625, 0.19134521484375, 0.2301025390625, 0.2301025390625, 0.25482177734375, 0.269775390625, 0.29876708984375, 0.3326416015625, 0.3326416015625, 0.3656005859375, 0.4150390625, 0.4583740234375, 0.4583740234375, 0.50933837890625, 0.53802490234375, 0.55999755859375, 0.55999755859375, 0.55999755859375, 0.55999755859375, 0.5853271484375, 0.5853271484375, 0.59967041015625, 0.59967041015625, 0.6121826171875, 0.6121826171875, 0.61981201171875, 0.61981201171875, 0.61981201171875, 0.61981201171875, 0.62103271484375, 0.62103271484375, 0.62744140625, 0.62744140625, 0.63079833984375, 0.63079833984375, 0.63079833984375, 0.63079833984375, 0.63140869140625, 0.63140869140625, 0.6292724609375, 0.6292724609375, 0.6292724609375, 0.6292724609375, 0.6317138671875, 0.6317138671875, 0.63201904296875, 0.63201904296875, 0.63262939453125, 0.63262939453125, 0.63690185546875, 0.63690185546875, 0.63690185546875, 0.63690185546875, 0.6463623046875, 0.6463623046875, 0.64727783203125, 0.64727783203125, 0.64727783203125, 0.64727783203125, 0.6439208984375, 0.6439208984375, 0.6427001953125, 0.6427001953125, 0.64361572265625, 0.64361572265625, 0.64971923828125, 0.64971923828125, 0.64971923828125, 0.64971923828125, 0.6524658203125, 0.6524658203125, 0.66650390625, 0.66650390625, 0.67535400390625, 0.67535400390625, 0.67535400390625, 0.67535400390625, 0.67626953125, 0.67626953125, 0.68115234375, 0.68115234375, 0.684814453125, 0.684814453125, 0.684814453125, 0.684814453125, 0.682373046875, 0.682373046875, 0.6866455078125, 0.6866455078125, 0.6915283203125, 0.6915283203125, 0.6915283203125, 0.6915283203125, 0.6939697265625, 0.6939697265625, 0.69854736328125, 0.69854736328125, 0.70098876953125, 0.70098876953125, 0.70770263671875, 0.70770263671875, 0.70770263671875, 0.70770263671875, 0.71044921875, 0.71044921875, 0.71075439453125, 0.71075439453125, 0.71258544921875, 0.71258544921875, 0.71258544921875, 0.71258544921875, 0.71258544921875, 0.71258544921875, 0.71197509765625, 0.71197509765625, 0.7147216796875, 0.7147216796875, 0.71807861328125, 0.71807861328125, 0.71807861328125, 0.71807861328125, 0.7177734375, 0.7177734375, 0.71868896484375, 0.71868896484375, 0.71868896484375, 0.71868896484375, 0.71807861328125, 0.71807861328125, 0.71929931640625, 0.71929931640625, 0.718994140625, 0.718994140625, 0.718994140625, 0.718994140625, 0.718994140625, 0.718994140625],0.25604989384934934,4.975800424602602,accepted,1.221576999872923,None
pgACC-TUS-staircase,,1,2024-02-12_14h54.51.912,None,222,,,-0.062255859375,2.151641845703125,2.7447509765625,2.82135009765625,2.783050537109375,2.845306396484375,29,16,16,0,173,8,8,2.583474971215527,[],0.25604989384934934,-0.7400414017972956,rejected,1.010119300102815,None
pgACC-TUS-staircase,,1,2024-02-12_14h54.51.912,None,222,,,-0.062255859375,2.151641845703125,2.7447509765625,2.82135009765625,2.783050537109375,2.845306396484375,30,20,20,0,173,9,9,2.583474971215527,[],0.25604989384934934,-0.38719320635835786,rejected,1.3583757998421788,None
pgACC-TUS-staircase,,1,2024-02-12_14h54.51.912,None,222,,,-0.062255859375,2.151641845703125,2.7447509765625,2.82135009765625,2.783050537109375,2.845306396484375,31,6,6,0,173,3,3,2.583474971215527,[],0.25604989384934934,-0.7400414017972956,rejected,1.3979154999833554,None
pgACC-TUS-staircase,,1,2024-02-12_14h54.51.912,None,222,,,-0.062255859375,2.151641845703125,2.7447509765625,2.82135009765625,2.783050537109375,2.845306396484375,32,9,9,6,179,6,6,3.617522890509348,[0.052490234375, 0.05340576171875, 0.0555419921875, 0.0628662109375, 0.0628662109375, 0.07476806640625, 0.09429931640625, 0.1226806640625, 0.14251708984375, 0.14251708984375, 0.150146484375, 0.164794921875, 0.21240234375, 0.25787353515625, 0.25787353515625, 0.28289794921875, 0.32501220703125, 0.3985595703125, 0.3985595703125, 0.4718017578125, 0.53436279296875, 0.5767822265625, 0.5767822265625, 0.618896484375, 0.662841796875, 0.69427490234375, 0.69427490234375, 0.70831298828125, 0.7177734375, 0.72540283203125, 0.72540283203125, 0.7342529296875, 0.74188232421875, 0.7489013671875, 0.76690673828125, 0.76690673828125, 0.78125, 0.784912109375, 0.792236328125, 0.792236328125, 0.809326171875, 0.8612060546875, 0.8612060546875, 0.89599609375, 0.89599609375, 0.89599609375, 0.89599609375, 0.9136962890625, 0.9136962890625, 0.9320068359375, 0.9320068359375, 0.94268798828125, 0.94268798828125, 0.94268798828125, 0.94268798828125, 0.9564208984375, 0.9564208984375, 0.99517822265625, 0.99517822265625, 1.0504150390625, 1.0504150390625, 1.07330322265625, 1.07330322265625, 1.07330322265625, 1.07330322265625, 1.072998046875, 1.072998046875, 1.06109619140625, 1.06109619140625, 1.05560302734375, 1.05560302734375, 1.05560302734375, 1.05560302734375, 1.05255126953125, 1.05255126953125, 1.044921875, 1.044921875, 1.03607177734375, 1.03607177734375, 1.03607177734375, 1.03607177734375, 1.03057861328125, 1.03057861328125, 1.02508544921875, 1.02508544921875, 1.00860595703125, 1.00860595703125, 0.999755859375, 0.999755859375, 0.999755859375, 0.999755859375, 0.99517822265625, 0.99517822265625, 0.99273681640625, 0.99273681640625, 0.99395751953125, 0.99395751953125, 0.99365234375, 0.99365234375, 0.99365234375, 0.99365234375, 0.99700927734375, 0.99700927734375, 1.00982666015625, 1.00982666015625, 1.00982666015625, 1.00982666015625, 1.02294921875, 1.02294921875, 1.0247802734375, 1.0247802734375, 1.026611328125, 1.026611328125, 1.03851318359375, 1.03851318359375, 1.03851318359375, 1.03851318359375, 1.04248046875, 1.04248046875, 1.0406494140625, 1.0406494140625, 1.04095458984375, 1.04095458984375, 1.0400390625, 1.0400390625, 1.0400390625, 1.0400390625, 1.02630615234375, 1.02630615234375, 1.0205078125, 1.0205078125, 1.0205078125, 1.0205078125, 1.01776123046875, 1.01776123046875, 1.0162353515625, 1.0162353515625, 1.01348876953125, 1.01348876953125, 1.01348876953125, 1.01348876953125, 1.014404296875, 1.014404296875, 1.01531982421875, 1.01531982421875, 1.01165771484375, 1.01165771484375, 1.01165771484375, 1.01165771484375, 1.00555419921875, 1.00555419921875, 1.00372314453125, 1.00372314453125, 1.00372314453125, 1.00372314453125, 1.00372314453125, 1.00372314453125, 1.00372314453125, 1.00372314453125, 1.00372314453125, 1.00372314453125, 1.00677490234375, 1.00677490234375],0.25604989384934934,3.695550955355856,accepted,1.029149399837479,None
pgACC-TUS-staircase,,1,2024-02-12_14h54.51.912,None,222,,,-0.062255859375,2.151641845703125,2.7447509765625,2.82135009765625,2.783050537109375,2.845306396484375,33,6,6,9,188,1,1,6.638521848785569,[0.05126953125, 0.0543212890625, 0.06744384765625, 0.0872802734375, 0.11749267578125, 0.11749267578125, 0.1416015625, 0.1708984375, 0.24078369140625, 0.27435302734375, 0.27435302734375, 0.30242919921875, 0.343017578125, 0.40740966796875, 0.4754638671875, 0.4754638671875, 0.52886962890625, 0.5755615234375, 0.62164306640625, 0.62164306640625, 0.675048828125, 0.72723388671875, 0.7733154296875, 0.7733154296875, 0.85601806640625, 0.91796875, 0.95703125, 0.95703125, 1.01470947265625, 1.0797119140625, 1.1138916015625, 1.14715576171875, 1.14715576171875, 1.19720458984375, 1.23443603515625, 1.26068115234375, 1.26068115234375, 1.29119873046875, 1.33636474609375, 1.3690185546875, 1.4349365234375, 1.4349365234375, 1.4935302734375, 1.5234375, 1.56005859375, 1.56005859375, 1.5899658203125, 1.614990234375, 1.6448974609375, 1.6448974609375, 1.656494140625, 1.6583251953125, 1.6827392578125, 1.6827392578125, 1.6827392578125, 1.6827392578125, 1.6888427734375, 1.6888427734375, 1.676025390625, 1.676025390625, 1.668701171875, 1.69403076171875, 1.69403076171875, 1.708984375, 1.708984375, 1.708984375, 1.708984375, 1.69525146484375, 1.69525146484375, 1.683349609375, 1.683349609375, 1.70135498046875, 1.70135498046875, 1.70135498046875, 1.70135498046875, 1.7041015625, 1.7041015625, 1.70379638671875, 1.70379638671875, 1.70379638671875, 1.70379638671875, 1.7572021484375, 1.7572021484375, 1.78192138671875, 1.78192138671875, 1.78924560546875, 1.78924560546875, 1.78924560546875, 1.78924560546875, 1.78863525390625, 1.78863525390625, 1.78863525390625, 1.78863525390625, 1.806640625, 1.806640625, 1.8121337890625, 1.8121337890625, 1.8121337890625, 1.8121337890625, 1.8408203125, 1.8408203125, 1.88140869140625, 1.88140869140625, 1.88507080078125, 1.88507080078125, 1.88507080078125, 1.88507080078125, 1.88568115234375, 1.88568115234375, 1.885986328125, 1.885986328125, 1.8804931640625, 1.8804931640625, 1.8804931640625, 1.8804931640625, 1.87713623046875, 1.87713623046875, 1.87530517578125, 1.87530517578125, 1.8609619140625, 1.8609619140625, 1.8603515625, 1.8603515625, 1.8603515625, 1.8603515625, 1.86431884765625, 1.86431884765625, 1.85577392578125, 1.85577392578125, 1.84906005859375, 1.84906005859375, 1.84783935546875, 1.84783935546875, 1.84783935546875, 1.84783935546875, 1.845703125, 1.845703125, 1.844482421875, 1.844482421875, 1.83990478515625, 1.83990478515625, 1.83990478515625, 1.83990478515625, 1.8389892578125, 1.8389892578125, 1.8634033203125, 1.8634033203125, 1.86279296875, 1.86279296875, 1.86279296875, 1.86279296875, 1.83746337890625, 1.83746337890625, 1.84783935546875, 1.84783935546875, 1.85394287109375, 1.85394287109375, 1.85394287109375, 1.85394287109375, 1.85089111328125, 1.85089111328125, 1.86798095703125, 1.86798095703125, 1.87652587890625, 1.87652587890625, 1.87652587890625, 1.87652587890625, 1.86553955078125, 1.86553955078125, 1.86431884765625, 1.86431884765625, 1.85516357421875, 1.85516357421875, 1.85516357421875, 1.85516357421875, 1.84356689453125, 1.84356689453125, 1.8292236328125, 1.8292236328125, 1.8426513671875, 1.8426513671875, 1.8475341796875, 1.8475341796875, 1.8475341796875, 1.8475341796875],0.2141915968580058,-0.21779617857657563,accepted,1.0755038999486715,None
pgACC-TUS-staircase,,1,2024-02-12_14h54.51.912,None,222,,,-0.062255859375,2.151641845703125,2.7447509765625,2.82135009765625,2.783050537109375,2.845306396484375,34,10,10,6,194,7,7,2.4036405504687757,[0.06622314453125, 0.07232666015625, 0.1007080078125, 0.1007080078125, 0.1153564453125, 0.12786865234375, 0.13397216796875, 0.13397216796875, 0.15625, 0.17669677734375, 0.220947265625, 0.220947265625, 0.263671875, 0.31768798828125, 0.31768798828125, 0.36224365234375, 0.36224365234375, 0.435791015625, 0.435791015625, 0.435791015625, 0.435791015625, 0.50445556640625, 0.50445556640625, 0.56060791015625, 0.56060791015625, 0.604248046875, 0.604248046875, 0.604248046875, 0.604248046875, 0.6365966796875, 0.6365966796875, 0.6524658203125, 0.6524658203125, 0.67047119140625, 0.67047119140625, 0.67047119140625, 0.67047119140625, 0.69061279296875, 0.69061279296875, 0.701904296875, 0.701904296875, 0.70220947265625, 0.70220947265625, 0.70220947265625, 0.70220947265625, 0.7012939453125, 0.7012939453125, 0.70098876953125, 0.70098876953125, 0.70098876953125, 0.70098876953125, 0.70098876953125, 0.70098876953125, 0.694580078125, 0.694580078125, 0.69091796875, 0.69091796875, 0.67840576171875, 0.67840576171875, 0.6744384765625, 0.6744384765625, 0.6744384765625, 0.6744384765625, 0.6719970703125, 0.6719970703125, 0.6719970703125, 0.6719970703125, 0.6732177734375, 0.6732177734375, 0.6732177734375, 0.6732177734375, 0.67413330078125, 0.67413330078125, 0.6719970703125, 0.6719970703125, 0.67169189453125, 0.67169189453125, 0.67169189453125, 0.67169189453125, 0.6719970703125, 0.6719970703125, 0.6719970703125, 0.6719970703125, 0.673828125, 0.673828125, 0.673828125, 0.673828125, 0.67047119140625, 0.67047119140625, 0.67047119140625, 0.67047119140625, 0.66864013671875, 0.66864013671875, 0.66864013671875, 0.66864013671875, 0.662841796875, 0.662841796875, 0.65948486328125, 0.65948486328125, 0.66253662109375, 0.66253662109375, 0.66497802734375, 0.66497802734375, 0.66497802734375, 0.66497802734375, 0.6683349609375, 0.6683349609375, 0.670166015625, 0.670166015625, 0.67047119140625, 0.67047119140625, 0.67047119140625, 0.67047119140625, 0.6683349609375, 0.6683349609375, 0.66802978515625, 0.66802978515625, 0.667724609375, 0.667724609375, 0.66375732421875, 0.66375732421875, 0.66375732421875, 0.66375732421875, 0.66314697265625, 0.66314697265625, 0.6646728515625, 0.6646728515625, 0.6646728515625, 0.6646728515625, 0.667724609375, 0.667724609375, 0.6683349609375, 0.6683349609375, 0.6689453125, 0.6689453125, 0.6689453125, 0.6689453125],0.2141915968580058,5.785808403141994,accepted,1.0008898999076337,None
pgACC-TUS-staircase,,1,2024-02-12_14h54.51.912,None,222,,,-0.062255859375,2.151641845703125,2.7447509765625,2.82135009765625,2.783050537109375,2.845306396484375,35,6,6,0,194,5,5,2.4036405504687757,[],0.2141915968580058,-0.4953882460422836,rejected,1.055426900042221,None
pgACC-TUS-staircase,,1,2024-02-12_14h54.51.912,None,222,,,-0.062255859375,2.151641845703125,2.7447509765625,2.82135009765625,2.783050537109375,2.845306396484375,36,6,6,6,200,4,4,5.4191567520149135,[0.05096435546875, 0.0518798828125, 0.05126953125, 0.05126953125, 0.052490234375, 0.0531005859375, 0.0579833984375, 0.0579833984375, 0.06744384765625, 0.07110595703125, 0.079345703125, 0.09735107421875, 0.09735107421875, 0.133056640625, 0.1812744140625, 0.25177001953125, 0.25177001953125, 0.2813720703125, 0.32745361328125, 0.39947509765625, 0.39947509765625, 0.45684814453125, 0.5157470703125, 0.5499267578125, 0.5499267578125, 0.5926513671875, 0.6427001953125, 0.69244384765625, 0.69244384765625, 0.732421875, 0.76873779296875, 0.82061767578125, 0.82061767578125, 0.8978271484375, 0.9271240234375, 0.9588623046875, 1.01348876953125, 1.01348876953125, 1.063232421875, 1.10443115234375, 1.129150390625, 1.129150390625, 1.1505126953125, 1.18499755859375, 1.2109375, 1.2109375, 1.2298583984375, 1.25885009765625, 1.28875732421875, 1.3055419921875, 1.3055419921875, 1.3275146484375, 1.3555908203125, 1.36993408203125, 1.36993408203125, 1.39404296875, 1.39404296875, 1.42364501953125, 1.42364501953125, 1.4251708984375, 1.4251708984375, 1.4251708984375, 1.4251708984375, 1.435546875, 1.435546875, 1.4739990234375, 1.4739990234375, 1.50146484375, 1.50146484375, 1.50146484375, 1.50146484375, 1.51611328125, 1.51611328125, 1.51885986328125, 1.51885986328125, 1.5185546875, 1.5185546875, 1.5185546875, 1.5185546875, 1.5179443359375, 1.5179443359375, 1.5167236328125, 1.5167236328125, 1.524658203125, 1.524658203125, 1.524658203125, 1.524658203125, 1.52587890625, 1.52587890625, 1.52008056640625, 1.52008056640625, 1.529541015625, 1.529541015625, 1.53472900390625, 1.53472900390625, 1.53472900390625, 1.53472900390625, 1.53167724609375, 1.53167724609375, 1.54998779296875, 1.54998779296875, 1.54754638671875, 1.54754638671875, 1.54754638671875, 1.54754638671875, 1.531982421875, 1.531982421875, 1.52618408203125, 1.52618408203125, 1.5301513671875, 1.5301513671875, 1.5301513671875, 1.5301513671875, 1.539306640625, 1.539306640625, 1.54998779296875, 1.54998779296875, 1.5496826171875, 1.5496826171875, 1.5496826171875, 1.5496826171875, 1.54754638671875, 1.54754638671875, 1.5521240234375, 1.5521240234375, 1.55975341796875, 1.55975341796875, 1.55975341796875, 1.55975341796875, 1.55303955078125, 1.55303955078125, 1.55059814453125, 1.55059814453125, 1.552734375, 1.552734375, 1.552734375, 1.552734375, 1.55181884765625, 1.55181884765625, 1.54296875, 1.54296875, 1.5399169921875, 1.5399169921875, 1.54327392578125, 1.54327392578125, 1.54327392578125, 1.54327392578125, 1.53076171875, 1.53076171875, 1.5142822265625, 1.5142822265625, 1.510009765625, 1.510009765625, 1.510009765625, 1.510009765625, 1.5093994140625, 1.5093994140625, 1.4990234375, 1.4990234375, 1.49200439453125, 1.49200439453125, 1.49200439453125, 1.49200439453125, 1.49444580078125, 1.49444580078125, 1.502685546875, 1.502685546875, 1.5032958984375, 1.5032958984375, 1.5032958984375, 1.5032958984375, 1.50360107421875, 1.50360107421875, 1.502685546875, 1.502685546875, 1.5081787109375, 1.5081787109375, 1.5081787109375, 1.5081787109375],0.2141915968580058,0.6452100785498551,accepted,0.9946875998284668,None
pgACC-TUS-staircase,,1,2024-02-12_14h54.51.912,None,222,,,-0.062255859375,2.151641845703125,2.7447509765625,2.82135009765625,2.783050537109375,2.845306396484375,37,16,16,0,200,8,8,5.4191567520149135,[],0.2548543514602783,2.5729344502719074,rejected,1.0762942000292242,None
pgACC-TUS-staircase,,1,2024-02-12_14h54.51.912,None,222,,,-0.062255859375,2.151641845703125,2.7447509765625,2.82135009765625,2.783050537109375,2.845306396484375,38,6,6,0,200,4,4,5.4191567520149135,[],0.2548543514602783,-0.31067849345781084,rejected,1.2732301000505686,None
pgACC-TUS-staircase,,1,2024-02-12_14h54.51.912,None,222,,,-0.062255859375,2.151641845703125,2.7447509765625,2.82135009765625,2.783050537109375,2.845306396484375,39,8,8,6,206,6,6,4.419101924447612,[0.31280517578125, 0.34912109375, 0.34912109375, 0.3924560546875, 0.4644775390625, 0.5157470703125, 0.5157470703125, 0.5462646484375, 0.58807373046875, 0.6201171875, 0.6201171875, 0.6787109375, 0.7220458984375, 0.7794189453125, 0.7794189453125, 0.84716796875, 0.89752197265625, 0.90911865234375, 0.90911865234375, 0.9210205078125, 0.93658447265625, 0.943603515625, 0.96923828125, 0.96923828125, 1.00250244140625, 1.0443115234375, 1.0443115234375, 1.0614013671875, 1.06536865234375, 1.0821533203125, 1.0931396484375, 1.0931396484375, 1.10321044921875, 1.11968994140625, 1.11968994140625, 1.13006591796875, 1.13006591796875, 1.13006591796875, 1.13006591796875, 1.136474609375, 1.136474609375, 1.1474609375, 1.1474609375, 1.16790771484375, 1.16790771484375, 1.16790771484375, 1.16790771484375, 1.18133544921875, 1.18133544921875, 1.190185546875, 1.190185546875, 1.21734619140625, 1.21734619140625, 1.21734619140625, 1.21734619140625, 1.22650146484375, 1.22650146484375, 1.231689453125, 1.231689453125, 1.22711181640625, 1.22711181640625, 1.22711181640625, 1.22711181640625, 1.22161865234375, 1.22161865234375, 1.21673583984375, 1.21673583984375, 1.21368408203125, 1.21368408203125, 1.20880126953125, 1.20880126953125, 1.20880126953125, 1.20880126953125, 1.20513916015625, 1.20513916015625, 1.1981201171875, 1.1981201171875, 1.19781494140625, 1.19781494140625, 1.19781494140625, 1.19781494140625, 1.19415283203125, 1.19415283203125, 1.19293212890625, 1.19293212890625, 1.190185546875, 1.190185546875, 1.18499755859375, 1.18499755859375, 1.18499755859375, 1.18499755859375, 1.1810302734375, 1.1810302734375, 1.1712646484375, 1.1712646484375, 1.16302490234375, 1.16302490234375, 1.16302490234375, 1.16302490234375, 1.16485595703125, 1.16485595703125, 1.16729736328125, 1.16729736328125, 1.1724853515625, 1.1724853515625, 1.1798095703125, 1.1798095703125, 1.1798095703125, 1.1798095703125, 1.18133544921875, 1.18133544921875, 1.18682861328125, 1.18682861328125, 1.19354248046875, 1.19354248046875, 1.19354248046875, 1.19354248046875, 1.1962890625, 1.1962890625, 1.1981201171875, 1.1981201171875, 1.204833984375, 1.204833984375, 1.204833984375, 1.204833984375, 1.212158203125, 1.212158203125, 1.21978759765625, 1.21978759765625, 1.2335205078125, 1.2335205078125, 1.2335205078125, 1.2335205078125, 1.23626708984375, 1.23626708984375, 1.23321533203125, 1.23321533203125, 1.23291015625, 1.23291015625, 1.23260498046875, 1.23260498046875, 1.23260498046875, 1.23260498046875, 1.23138427734375, 1.23138427734375, 1.229248046875, 1.229248046875, 1.2298583984375, 1.2298583984375, 1.2298583984375, 1.2298583984375, 1.22802734375, 1.22802734375, 1.2298583984375, 1.2298583984375, 1.2298583984375, 1.2298583984375],0.2548543514602783,1.9223303766355473,accepted,0.9100134999025613,None
pgACC-TUS-staircase,,1,2024-02-12_14h54.51.912,None,222,,,-0.062255859375,2.151641845703125,2.7447509765625,2.82135009765625,2.783050537109375,2.845306396484375,40,20,20,0,206,9,9,4.419101924447612,[],0.2548543514602783,-1.174756652570018,rejected,1.1651997999288142,None
pgACC-TUS-staircase,,1,2024-02-12_14h54.51.912,None,222,,,-0.062255859375,2.151641845703125,2.7447509765625,2.82135009765625,2.783050537109375,2.845306396484375,41,6,6,0,206,1,1,4.419101924447612,[],0.2548543514602783,-0.6432024682825421,rejected,1.57649050001055,None
pgACC-TUS-staircase,,1,2024-02-12_14h54.51.912,None,222,,,-0.062255859375,2.151641845703125,2.7447509765625,2.82135009765625,2.783050537109375,2.845306396484375,42,16,16,6,212,8,8,1.791764899391414,[0.05584716796875, 0.06683349609375, 0.06683349609375, 0.07415771484375, 0.08056640625, 0.08056640625, 0.09765625, 0.1220703125, 0.1312255859375, 0.133056640625, 0.133056640625, 0.147705078125, 0.174560546875, 0.21636962890625, 0.21636962890625, 0.260009765625, 0.2801513671875, 0.2801513671875, 0.31982421875, 0.31982421875, 0.36651611328125, 0.36651611328125, 0.36651611328125, 0.36651611328125, 0.40802001953125, 0.40802001953125, 0.44921875, 0.44921875, 0.4730224609375, 0.4730224609375, 0.4730224609375, 0.4730224609375, 0.49407958984375, 0.49407958984375, 0.5218505859375, 0.5218505859375, 0.5352783203125, 0.5352783203125, 0.5352783203125, 0.5352783203125, 0.53985595703125, 0.53985595703125, 0.53863525390625, 0.53863525390625, 0.53863525390625, 0.53863525390625, 0.53863525390625, 0.53863525390625, 0.53863525390625, 0.53863525390625, 0.538330078125, 0.538330078125, 0.53955078125, 0.53955078125, 0.53955078125, 0.53955078125, 0.53619384765625, 0.53619384765625, 0.53375244140625, 0.53375244140625, 0.5328369140625, 0.5328369140625, 0.52703857421875, 0.52703857421875, 0.52703857421875, 0.52703857421875, 0.5224609375, 0.5224609375, 0.5181884765625, 0.5181884765625, 0.5181884765625, 0.5181884765625, 0.51239013671875, 0.51239013671875, 0.50872802734375, 0.50872802734375, 0.5072021484375, 0.5072021484375, 0.50506591796875, 0.50506591796875, 0.50506591796875, 0.50506591796875, 0.5029296875, 0.5029296875, 0.4998779296875, 0.4998779296875, 0.496826171875, 0.496826171875, 0.496826171875, 0.496826171875, 0.49560546875, 0.49560546875, 0.49591064453125, 0.49591064453125, 0.49346923828125, 0.49346923828125, 0.49346923828125, 0.49346923828125, 0.4913330078125, 0.4913330078125, 0.4925537109375, 0.4925537109375, 0.49468994140625, 0.49468994140625, 0.49468994140625, 0.49468994140625, 0.4962158203125, 0.4962158203125, 0.4974365234375, 0.4974365234375, 0.49835205078125, 0.49835205078125, 0.49835205078125, 0.49835205078125, 0.499267578125, 0.499267578125, 0.49896240234375, 0.49896240234375, 0.499267578125, 0.499267578125, 0.499267578125, 0.499267578125, 0.50018310546875, 0.50018310546875, 0.4998779296875, 0.4998779296875, 0.49896240234375, 0.49896240234375, 0.4986572265625, 0.4986572265625, 0.4986572265625, 0.4986572265625, 0.5010986328125, 0.5010986328125, 0.50018310546875, 0.50018310546875, 0.4986572265625, 0.4986572265625],0.2548543514602783,5.745145648539721,accepted,0.9353446001186967,None
pgACC-TUS-staircase,,1,2024-02-12_14h54.51.912,None,222,,,-0.062255859375,2.151641845703125,2.7447509765625,2.82135009765625,2.783050537109375,2.845306396484375,43,6,6,0,212,4,4,1.791764899391414,[],0.2548543514602783,-0.31067849345781084,rejected,0.8970308001153171,None
pgACC-TUS-staircase,,1,2024-02-12_14h54.51.912,None,222,,,-0.062255859375,2.151641845703125,2.7447509765625,2.82135009765625,2.783050537109375,2.845306396484375,44,21,21,6,218,9,9,4.392784692143209,[0.0396728515625, 0.03814697265625, 0.0390625, 0.0384521484375, 0.0384521484375, 0.03875732421875, 0.0390625, 0.03997802734375, 0.03997802734375, 0.04058837890625, 0.04058837890625, 0.04119873046875, 0.04119873046875, 0.0439453125, 0.06195068359375, 0.08026123046875, 0.08026123046875, 0.10009765625, 0.12908935546875, 0.15289306640625, 0.15289306640625, 0.208740234375, 0.2532958984375, 0.27862548828125, 0.325927734375, 0.325927734375, 0.364990234375, 0.43487548828125, 0.4840087890625, 0.4840087890625, 0.52459716796875, 0.56610107421875, 0.60150146484375, 0.60150146484375, 0.63079833984375, 0.687255859375, 0.72113037109375, 0.72113037109375, 0.7525634765625, 0.7867431640625, 0.8465576171875, 0.8892822265625, 0.8892822265625, 0.90484619140625, 0.926513671875, 0.941162109375, 0.941162109375, 0.96405029296875, 1.01531982421875, 1.0546875, 1.0546875, 1.09130859375, 1.114501953125, 1.114501953125, 1.12884521484375, 1.12884521484375, 1.12884521484375, 1.12884521484375, 1.1566162109375, 1.1566162109375, 1.177978515625, 1.177978515625, 1.18896484375, 1.18896484375, 1.18896484375, 1.18896484375, 1.1895751953125, 1.1895751953125, 1.19903564453125, 1.19903564453125, 1.21795654296875, 1.21795654296875, 1.21795654296875, 1.21795654296875, 1.22833251953125, 1.22833251953125, 1.2286376953125, 1.2286376953125, 1.231689453125, 1.231689453125, 1.231689453125, 1.231689453125, 1.239013671875, 1.239013671875, 1.2347412109375, 1.2347412109375, 1.22833251953125, 1.22833251953125, 1.22802734375, 1.22802734375, 1.22802734375, 1.22802734375, 1.2255859375, 1.2255859375, 1.2213134765625, 1.2213134765625, 1.21612548828125, 1.21612548828125, 1.2139892578125, 1.2139892578125, 1.2139892578125, 1.2139892578125, 1.21185302734375, 1.21185302734375, 1.21368408203125, 1.21368408203125, 1.21368408203125, 1.21368408203125, 1.21307373046875, 1.21307373046875, 1.214599609375, 1.214599609375, 1.2213134765625, 1.2213134765625, 1.2188720703125, 1.2188720703125, 1.2188720703125, 1.2188720703125, 1.224365234375, 1.224365234375, 1.22802734375, 1.22802734375, 1.22802734375, 1.22802734375, 1.226806640625, 1.226806640625, 1.2408447265625, 1.2408447265625, 1.25274658203125, 1.25274658203125, 1.2518310546875, 1.2518310546875, 1.2518310546875, 1.2518310546875, 1.24969482421875, 1.24969482421875, 1.25091552734375, 1.25091552734375, 1.2493896484375, 1.2493896484375, 1.2493896484375, 1.2493896484375, 1.240234375, 1.240234375, 1.239013671875, 1.239013671875, 1.236572265625, 1.236572265625, 1.236572265625, 1.236572265625, 1.22772216796875, 1.22772216796875, 1.22222900390625, 1.22222900390625, 1.2188720703125, 1.2188720703125, 1.2188720703125, 1.2188720703125, 1.2188720703125, 1.2188720703125, 1.221923828125, 1.221923828125, 1.2237548828125, 1.2237548828125, 1.2237548828125, 1.2237548828125, 1.22039794921875, 1.22039794921875, 1.21826171875, 1.21826171875, 1.224365234375, 1.224365234375, 1.2225341796875, 1.2225341796875],0.2548543514602783,1.9223303766355473,accepted,1.2285693001467735,None
pgACC-TUS-staircase,,1,2024-02-12_14h54.51.912,None,222,,,-0.062255859375,2.151641845703125,2.7447509765625,2.82135009765625,2.783050537109375,2.845306396484375,45,6,6,0,218,2,2,4.392784692143209,[],0.2936020164813776,0.35679753171745787,rejected,0.9833114000502974,None
