expName,curec_ID,session_nr,date,end_date,participant,age,gender,gripper_baseline,max_effort_calibration_1,max_effort_calibration_2,max_effort_calibration_3,max_effort,max_effort_baseline_corrected,trial_count,reward_offer,next_reward_offer,reward_earned,total_reward,effort_offer,next_effort_offer,effort_expended,effort_trace,estimated_k,estimated_net_value,participant_response,participant_choice_response_time,participant_effort_response_time
pgACC-TUS-staircase,,1,2024-02-13_11h53.12.763,None,03,,,-0.07232666015625,4.859837123325893,4.543660481770833,4.2149658203125,4.379313151041666,4.451639811197916,0,18,None,0,0,6,None,None,"[0.11749267578125, 0.12939453125, 0.13336181640625, 0.13641357421875, 0.142822265625, 0.1556396484375, 0.1776123046875, 0.2398681640625, 0.29632568359375, 0.357666015625, 0.5352783203125, 1.094970703125, 1.61773681640625, 2.2564697265625, 2.93792724609375, 3.2501220703125, 3.5186767578125, 3.65570068359375, 3.73260498046875, 3.74908447265625, 3.8507080078125, 3.96209716796875, 4.15771484375, 4.22119140625, 4.32037353515625, 4.35791015625, 4.3988037109375, 4.49188232421875, 4.5635986328125, 4.58587646484375, 4.59716796875, 4.59716796875, 4.62371826171875, 4.5989990234375, 4.6044921875, 4.59808349609375, 4.6661376953125, 4.69696044921875, 4.73358154296875, 4.76165771484375, 4.7979736328125, 4.82330322265625, 4.84039306640625, 4.85626220703125, 4.87823486328125, 4.87274169921875, 4.8748779296875, 4.873046875, 4.78179931640625, 4.6136474609375, 0.15899658203125, 0.32745361328125, 1.93359375, 3.14788818359375, 3.2696533203125, 3.24188232421875, 3.1646728515625, 3.402099609375, 3.7213134765625, 3.9630126953125, 4.1162109375, 4.171142578125, 4.1510009765625, 4.21478271484375, 4.141845703125, 4.17236328125, 4.1357421875, 4.12841796875, 4.25262451171875, 4.42779541015625, 4.537353515625, 4.54803466796875, 4.55902099609375, 4.52392578125, 4.4189453125, 4.44183349609375, 4.35302734375, 4.246826171875, 4.2816162109375, 0.4052734375, 1.42578125, 2.41668701171875, 3.0657958984375, 3.23638916015625, 3.2513427734375, 3.192138671875, 3.0377197265625, 3.05419921875, 3.2666015625, 3.4625244140625, 3.65997314453125, 3.72711181640625, 3.79730224609375, 3.83880615234375, 3.71124267578125, 3.7152099609375, 3.75152587890625, 3.83056640625, 3.91937255859375, 3.96636962890625, 3.9703369140625, 3.91815185546875, 3.7884521484375, 3.82598876953125, 3.97003173828125, 4.1204833984375, 4.229736328125, 4.25079345703125, 4.24530029296875, 4.228515625, 4.1748046875, 4.07867431640625, 3.770751953125, 3.2684326171875]",0.5,0.0,None,None,None
pgACC-TUS-staircase,,1,2024-02-13_11h53.12.763,None,03,,,-0.07232666015625,4.859837123325893,4.543660481770833,4.2149658203125,4.379313151041666,4.451639811197916,1,18,15,18,18,6,5,7.268922007693309,"[0.054931640625, 0.0543212890625, 0.05401611328125, 0.0543212890625, 0.0543212890625, 0.0543212890625, 0.05401611328125, 0.05401611328125, 0.05462646484375, 0.05340576171875, 0.05340576171875, 0.05340576171875, 0.05279541015625, 0.0537109375, 0.0531005859375, 0.0531005859375, 0.0537109375, 0.05401611328125, 0.0543212890625, 0.0543212890625, 0.0537109375, 0.05340576171875, 0.05340576171875, 0.05340576171875, 0.05340576171875, 0.05401611328125, 0.05279541015625, 0.05340576171875, 0.05340576171875, 0.0531005859375, 0.0537109375, 0.05340576171875, 0.05340576171875, 0.0543212890625, 0.05401611328125, 0.0537109375, 0.0537109375, 0.0537109375, 0.05340576171875, 0.05340576171875, 0.05340576171875, 0.05279541015625, 0.05279541015625, 0.05340576171875, 0.05340576171875, 0.0531005859375, 0.0531005859375, 0.05401611328125, 0.0567626953125, 0.06103515625, 0.06103515625, 0.0689697265625, 0.0860595703125, 0.09521484375, 0.10345458984375, 0.11077880859375, 0.11077880859375, 0.11993408203125, 0.1300048828125, 0.1416015625, 0.16815185546875, 0.16815185546875, 0.21636962890625, 0.2606201171875, 0.291748046875, 0.380859375, 0.380859375, 0.48492431640625, 0.55938720703125, 0.6414794921875, 0.6414794921875, 0.71807861328125, 0.7763671875, 0.9039306640625, 0.9637451171875, 0.9637451171875, 1.08123779296875, 1.1712646484375, 1.246337890625, 1.246337890625, 1.3140869140625, 1.4129638671875, 1.50543212890625, 1.50543212890625, 1.5960693359375, 1.68182373046875, 1.80877685546875, 1.89208984375, 1.89208984375, 2.01202392578125, 2.07794189453125, 2.1600341796875, 2.1600341796875, 2.2442626953125, 2.298583984375, 2.37640380859375, 2.45391845703125, 2.45391845703125, 2.49542236328125, 2.52288818359375, 2.52838134765625, 2.5506591796875, 2.5506591796875, 2.57598876953125, 2.58758544921875, 2.56927490234375, 2.5677490234375, 2.5677490234375, 2.55828857421875, 2.59063720703125, 2.62908935546875, 2.62908935546875, 2.6385498046875, 2.6385498046875, 2.6385498046875, 2.6385498046875, 2.655029296875, 2.655029296875, 2.68524169921875, 2.68524169921875, 2.72003173828125, 2.72003173828125, 2.72003173828125, 2.72003173828125, 2.73468017578125, 2.73468017578125, 2.76458740234375, 2.76458740234375, 2.860107421875, 2.860107421875, 2.93121337890625, 2.93121337890625, 2.93121337890625, 2.93121337890625, 2.97119140625, 2.97119140625, 2.9986572265625, 2.9986572265625, 3.04290771484375, 3.04290771484375, 3.04290771484375, 3.04290771484375, 3.0987548828125, 3.0987548828125, 3.148193359375, 3.148193359375, 3.18359375, 3.18359375, 3.19305419921875, 3.19305419921875, 3.19305419921875, 3.19305419921875, 3.2171630859375, 3.2171630859375, 3.23577880859375, 3.23577880859375, 3.23211669921875, 3.23211669921875, 3.21868896484375, 3.21868896484375, 3.21868896484375, 3.21868896484375, 3.2080078125, 3.2080078125, 3.194580078125, 3.194580078125, 3.1561279296875, 3.1561279296875, 3.14788818359375, 3.14788818359375, 3.14788818359375, 3.14788818359375, 3.1524658203125, 3.1524658203125, 3.15399169921875, 3.15399169921875, 3.18023681640625, 3.18023681640625, 3.18023681640625, 3.18023681640625, 3.1982421875, 3.1982421875, 3.1854248046875, 3.1854248046875, 3.18389892578125, 3.18389892578125, 3.18389892578125, 3.18389892578125, 3.18572998046875, 3.18572998046875, 3.18023681640625, 3.18023681640625, 3.1707763671875, 3.1707763671875, 3.1671142578125, 3.1671142578125, 3.1671142578125, 3.1671142578125, 3.153076171875, 3.153076171875, 3.15032958984375, 3.15032958984375, 3.1512451171875, 3.1512451171875, 3.15643310546875, 3.15643310546875, 3.15643310546875, 3.15643310546875, 3.16864013671875, 3.16864013671875, 3.1884765625, 3.1884765625, 3.18450927734375, 3.18450927734375, 3.18572998046875, 3.18572998046875, 3.18572998046875, 3.18572998046875, 3.17413330078125, 3.17413330078125, 3.15643310546875, 3.15643310546875, 3.172607421875, 3.172607421875, 3.172607421875, 3.172607421875, 3.18756103515625, 3.18756103515625, 3.1768798828125, 3.1768798828125, 3.18328857421875, 3.18328857421875]",0.5,0.0,accepted,12.861760800005868,2.8149624997749925
pgACC-TUS-staircase,,1,2024-02-13_11h53.12.763,None,03,,,-0.07232666015625,4.859837123325893,4.543660481770833,4.2149658203125,4.379313151041666,4.451639811197916,2,15,5,15,33,5,3,7.638953412744134,"[0.06011962890625, 0.06103515625, 0.0604248046875, 0.0604248046875, 0.0604248046875, 0.0616455078125, 0.0616455078125, 0.0616455078125, 0.06134033203125, 0.06134033203125, 0.06134033203125, 0.06103515625, 0.06134033203125, 0.0604248046875, 0.0604248046875, 0.06072998046875, 0.06103515625, 0.06011962890625, 0.06011962890625, 0.06011962890625, 0.06103515625, 0.06134033203125, 0.06134033203125, 0.06134033203125, 0.06134033203125, 0.06134033203125, 0.06134033203125, 0.06134033203125, 0.06072998046875, 0.06072998046875, 0.06134033203125, 0.0604248046875, 0.06103515625, 0.06103515625, 0.0604248046875, 0.0604248046875, 0.06011962890625, 0.06103515625, 0.06103515625, 0.06103515625, 0.06134033203125, 0.0628662109375, 0.0628662109375, 0.06622314453125, 0.0732421875, 0.07659912109375, 0.08087158203125, 0.08087158203125, 0.087890625, 0.09521484375, 0.09735107421875, 0.09735107421875, 0.10009765625, 0.1025390625, 0.11138916015625, 0.11810302734375, 0.11810302734375, 0.12969970703125, 0.14373779296875, 0.17547607421875, 0.22491455078125, 0.22491455078125, 0.27587890625, 0.3558349609375, 0.4962158203125, 0.61920166015625, 0.61920166015625, 0.75775146484375, 0.93475341796875, 1.11663818359375, 1.214599609375, 1.214599609375, 1.32598876953125, 1.47857666015625, 1.60247802734375, 1.60247802734375, 1.68792724609375, 1.86004638671875, 2.00653076171875, 2.086181640625, 2.086181640625, 2.18963623046875, 2.27630615234375, 2.27630615234375, 2.36328125, 2.36328125, 2.44140625, 2.44140625, 2.44140625, 2.44140625, 2.4871826171875, 2.4871826171875, 2.567138671875, 2.567138671875, 2.64984130859375, 2.64984130859375, 2.64984130859375, 2.64984130859375, 2.70660400390625, 2.70660400390625, 2.7935791015625, 2.7935791015625, 2.8741455078125, 2.8741455078125, 2.91168212890625, 2.91168212890625, 2.91168212890625, 2.91168212890625, 2.94097900390625, 2.94097900390625, 3.0218505859375, 3.0218505859375, 3.09295654296875, 3.09295654296875, 3.09295654296875, 3.09295654296875, 3.11492919921875, 3.11492919921875, 3.1640625, 3.1640625, 3.21380615234375, 3.21380615234375, 3.21380615234375, 3.21380615234375, 3.24554443359375, 3.24554443359375, 3.24432373046875, 3.24432373046875, 3.2666015625, 3.2666015625, 3.2666015625, 3.2666015625, 3.2794189453125, 3.2794189453125, 3.2684326171875, 3.2684326171875, 3.2537841796875, 3.2537841796875, 3.267822265625, 3.267822265625, 3.267822265625, 3.267822265625, 3.2794189453125, 3.2794189453125, 3.26080322265625, 3.26080322265625, 3.226318359375, 3.226318359375, 3.226318359375, 3.226318359375, 3.1597900390625, 3.1597900390625, 3.13201904296875, 3.13201904296875, 3.15826416015625, 3.15826416015625, 3.16253662109375, 3.16253662109375, 3.16253662109375, 3.16253662109375, 3.14697265625, 3.14697265625, 3.14056396484375, 3.14056396484375, 3.1512451171875, 3.1512451171875, 3.1512451171875, 3.1512451171875, 3.1689453125, 3.1689453125, 3.19305419921875, 3.19305419921875, 3.19244384765625, 3.19244384765625, 3.212890625, 3.212890625, 3.212890625, 3.212890625, 3.2586669921875, 3.2586669921875, 3.27880859375, 3.27880859375, 3.2952880859375, 3.2952880859375, 3.2952880859375, 3.2952880859375, 3.32366943359375, 3.32366943359375, 3.32489013671875, 3.32489013671875, 3.3251953125, 3.3251953125, 3.3251953125, 3.3251953125, 3.35479736328125, 3.35479736328125, 3.3624267578125, 3.3624267578125, 3.359375, 3.359375, 3.359375, 3.359375, 3.3453369140625, 3.3453369140625]",0.5,2.5,accepted,2.895334100117907,2.3471073999535292
pgACC-TUS-staircase,,1,2024-02-13_11h53.12.763,None,03,,,-0.07232666015625,4.859837123325893,4.543660481770833,4.2149658203125,4.379313151041666,4.451639811197916,3,5,12,5,38,3,5,4.674521026517756,"[0.05401611328125, 0.0537109375, 0.05340576171875, 0.05340576171875, 0.05340576171875, 0.05279541015625, 0.05279541015625, 0.05279541015625, 0.05279541015625, 0.05401611328125, 0.05340576171875, 0.0537109375, 0.05401611328125, 0.05401611328125, 0.05279541015625, 0.05279541015625, 0.05279541015625, 0.05340576171875, 0.0537109375, 0.05340576171875, 0.05340576171875, 0.05401611328125, 0.05401611328125, 0.05401611328125, 0.05340576171875, 0.0531005859375, 0.0531005859375, 0.05279541015625, 0.05279541015625, 0.0518798828125, 0.052490234375, 0.052490234375, 0.0518798828125, 0.052490234375, 0.0531005859375, 0.0531005859375, 0.0537109375, 0.05340576171875, 0.05340576171875, 0.05340576171875, 0.0537109375, 0.05462646484375, 0.05462646484375, 0.05889892578125, 0.05889892578125, 0.07049560546875, 0.084228515625, 0.10467529296875, 0.10467529296875, 0.13336181640625, 0.18951416015625, 0.2496337890625, 0.291748046875, 0.291748046875, 0.33294677734375, 0.3692626953125, 0.4376220703125, 0.4376220703125, 0.49041748046875, 0.53741455078125, 0.60302734375, 0.6854248046875, 0.6854248046875, 0.7647705078125, 0.90667724609375, 1.0272216796875, 1.121826171875, 1.121826171875, 1.17950439453125, 1.28326416015625, 1.3568115234375, 1.3568115234375, 1.3568115234375, 1.3568115234375, 1.4697265625, 1.4697265625, 1.52130126953125, 1.52130126953125, 1.610107421875, 1.610107421875, 1.68060302734375, 1.68060302734375, 1.68060302734375, 1.68060302734375, 1.759033203125, 1.759033203125, 1.78131103515625, 1.78131103515625, 1.82403564453125, 1.82403564453125, 1.82403564453125, 1.82403564453125, 1.87286376953125, 1.87286376953125, 1.9281005859375, 1.9281005859375, 1.92474365234375, 1.92474365234375, 2.017822265625, 2.017822265625, 2.017822265625, 2.017822265625, 2.0513916015625, 2.0513916015625, 2.04620361328125, 2.04620361328125, 2.0184326171875, 2.0184326171875, 2.02789306640625, 2.02789306640625, 2.02789306640625, 2.02789306640625, 2.0257568359375, 2.0257568359375, 2.01324462890625, 2.01324462890625, 2.0050048828125, 2.0050048828125, 2.0050048828125, 2.0050048828125, 2.00653076171875, 2.00653076171875, 2.00103759765625, 2.00103759765625, 1.983642578125, 1.983642578125, 1.97265625, 1.97265625, 1.97265625, 1.97265625, 1.95098876953125, 1.95098876953125, 1.92657470703125, 1.92657470703125, 1.91375732421875, 1.91375732421875, 1.91375732421875, 1.91375732421875, 1.922607421875, 1.922607421875, 1.9256591796875, 1.9256591796875, 1.925048828125, 1.925048828125, 1.925048828125, 1.925048828125, 1.9415283203125, 1.9415283203125, 1.97113037109375, 1.97113037109375, 1.98516845703125, 1.98516845703125, 1.99249267578125, 1.99249267578125, 1.99249267578125, 1.99249267578125, 2.01446533203125, 2.01446533203125, 2.0281982421875, 2.0281982421875, 2.03216552734375, 2.03216552734375, 2.0391845703125, 2.0391845703125, 2.0391845703125, 2.0391845703125, 2.0458984375, 2.0458984375, 2.04620361328125, 2.04620361328125, 2.05169677734375, 2.05169677734375, 2.05169677734375, 2.05169677734375, 2.05169677734375, 2.05169677734375, 2.04986572265625, 2.04986572265625, 2.05047607421875, 2.05047607421875, 2.05108642578125, 2.05108642578125, 2.05108642578125, 2.05108642578125, 2.04620361328125, 2.04620361328125, 2.04559326171875, 2.04559326171875, 2.04681396484375, 2.04681396484375, 2.04681396484375, 2.04681396484375, 2.047119140625, 2.047119140625]",0.5,0.5,accepted,1.7450914001092315,2.173415800090879
pgACC-TUS-staircase,,1,2024-02-13_11h53.12.763,None,03,,,-0.07232666015625,4.859837123325893,4.543660481770833,4.2149658203125,4.379313151041666,4.451639811197916,4,12,19,12,50,5,7,6.928158623380969,"[0.064697265625, 0.064697265625, 0.0634765625, 0.06378173828125, 0.06378173828125, 0.0640869140625, 0.06378173828125, 0.06378173828125, 0.0640869140625, 0.06378173828125, 0.0640869140625, 0.0640869140625, 0.06378173828125, 0.06439208984375, 0.06439208984375, 0.06439208984375, 0.0640869140625, 0.0640869140625, 0.06439208984375, 0.06439208984375, 0.0634765625, 0.0634765625, 0.06439208984375, 0.06439208984375, 0.06500244140625, 0.06561279296875, 0.06500244140625, 0.06500244140625, 0.06561279296875, 0.06591796875, 0.0653076171875, 0.0653076171875, 0.0653076171875, 0.0689697265625, 0.078125, 0.09033203125, 0.09033203125, 0.106201171875, 0.1348876953125, 0.19073486328125, 0.19073486328125, 0.244140625, 0.27862548828125, 0.34637451171875, 0.34637451171875, 0.4376220703125, 0.55694580078125, 0.6695556640625, 0.8160400390625, 0.8160400390625, 0.9881591796875, 1.13983154296875, 1.25518798828125, 1.25518798828125, 1.3336181640625, 1.485595703125, 1.57928466796875, 1.57928466796875, 1.6302490234375, 1.69342041015625, 1.78558349609375, 1.9061279296875, 1.9061279296875, 1.99798583984375, 2.0501708984375, 2.171630859375, 2.171630859375, 2.25341796875, 2.25341796875, 2.3162841796875, 2.3162841796875, 2.41302490234375, 2.41302490234375, 2.41302490234375, 2.41302490234375, 2.4652099609375, 2.4652099609375, 2.49359130859375, 2.49359130859375, 2.52288818359375, 2.52288818359375, 2.55218505859375, 2.55218505859375, 2.55218505859375, 2.55218505859375, 2.52838134765625, 2.52838134765625, 2.506103515625, 2.506103515625, 2.4908447265625, 2.4908447265625, 2.49664306640625, 2.49664306640625, 2.49664306640625, 2.49664306640625, 2.5408935546875, 2.5408935546875, 2.55615234375, 2.55615234375, 2.57232666015625, 2.57232666015625, 2.57232666015625, 2.57232666015625, 2.63336181640625, 2.63336181640625, 2.67791748046875, 2.67791748046875, 2.69805908203125, 2.69805908203125, 2.71087646484375, 2.71087646484375, 2.71087646484375, 2.71087646484375, 2.7349853515625, 2.7349853515625, 2.77252197265625, 2.77252197265625, 2.818603515625, 2.818603515625, 2.818603515625, 2.818603515625, 2.83843994140625, 2.83843994140625, 2.86529541015625, 2.86529541015625, 2.8961181640625, 2.8961181640625, 2.8863525390625, 2.8863525390625, 2.8863525390625, 2.8863525390625, 2.86102294921875, 2.86102294921875, 2.86102294921875, 2.86102294921875, 2.87689208984375, 2.87689208984375, 2.87200927734375, 2.87200927734375, 2.87200927734375, 2.87200927734375, 2.87017822265625, 2.87017822265625, 2.8900146484375, 2.8900146484375, 2.89306640625, 2.89306640625, 2.89306640625, 2.89306640625, 2.890625, 2.890625, 2.89947509765625, 2.89947509765625, 2.90435791015625, 2.90435791015625, 2.90435791015625, 2.90435791015625, 2.9107666015625, 2.9107666015625, 2.90130615234375, 2.90130615234375, 2.90191650390625, 2.90191650390625, 2.9071044921875, 2.9071044921875, 2.9071044921875, 2.9071044921875, 2.904052734375, 2.904052734375, 2.906494140625, 2.906494140625, 2.9302978515625, 2.9302978515625, 2.9302978515625, 2.9302978515625, 2.9400634765625, 2.9400634765625, 2.9498291015625, 2.9498291015625, 2.95684814453125, 2.95684814453125, 2.95684814453125, 2.95684814453125, 3.0072021484375, 3.0072021484375, 3.0291748046875, 3.0291748046875, 3.03558349609375, 3.03558349609375, 3.0340576171875, 3.0340576171875]",0.4229152486445374,-0.5,accepted,2.0575578999705613,2.1250255000777543
pgACC-TUS-staircase,,1,2024-02-13_11h53.12.763,None,03,,,-0.07232666015625,4.859837123325893,4.543660481770833,4.2149658203125,4.379313151041666,4.451639811197916,5,19,22,19,69,7,8,8.436158549049487,"[0.0634765625, 0.0640869140625, 0.06439208984375, 0.06439208984375, 0.0640869140625, 0.0640869140625, 0.0634765625, 0.0634765625, 0.0634765625, 0.0640869140625, 0.0634765625, 0.064697265625, 0.064697265625, 0.0640869140625, 0.064697265625, 0.06378173828125, 0.0634765625, 0.0634765625, 0.06378173828125, 0.0634765625, 0.06378173828125, 0.06378173828125, 0.0634765625, 0.0640869140625, 0.06561279296875, 0.0653076171875, 0.0653076171875, 0.06561279296875, 0.06561279296875, 0.0677490234375, 0.0677490234375, 0.07354736328125, 0.0811767578125, 0.09490966796875, 0.1104736328125, 0.1104736328125, 0.14404296875, 0.17730712890625, 0.2215576171875, 0.2215576171875, 0.2655029296875, 0.29571533203125, 0.35369873046875, 0.35369873046875, 0.48980712890625, 0.6072998046875, 0.8074951171875, 0.8074951171875, 0.982666015625, 1.177978515625, 1.3165283203125, 1.53350830078125, 1.53350830078125, 1.6259765625, 1.72882080078125, 1.8231201171875, 1.96563720703125, 1.96563720703125, 2.06085205078125, 2.1307373046875, 2.252197265625, 2.252197265625, 2.39410400390625, 2.4407958984375, 2.4932861328125, 2.4932861328125, 2.5762939453125, 2.652587890625, 2.6995849609375, 2.7484130859375, 2.7484130859375, 2.8594970703125, 2.90496826171875, 2.9193115234375, 2.95928955078125, 2.95928955078125, 3.00689697265625, 3.0401611328125, 3.0401611328125, 3.07098388671875, 3.07098388671875, 3.09173583984375, 3.09173583984375, 3.1170654296875, 3.1170654296875, 3.14453125, 3.14453125, 3.14453125, 3.14453125, 3.1585693359375, 3.1585693359375, 3.192138671875, 3.192138671875, 3.22479248046875, 3.22479248046875, 3.2635498046875, 3.2635498046875, 3.2635498046875, 3.2635498046875, 3.270263671875, 3.270263671875, 3.30718994140625, 3.30718994140625, 3.35479736328125, 3.35479736328125, 3.36578369140625, 3.36578369140625, 3.36578369140625, 3.36578369140625, 3.3282470703125, 3.3282470703125, 3.35784912109375, 3.35784912109375, 3.385009765625, 3.385009765625, 3.385009765625, 3.385009765625, 3.427734375, 3.427734375, 3.494873046875, 3.494873046875, 3.5430908203125, 3.5430908203125, 3.60260009765625, 3.60260009765625, 3.60260009765625, 3.60260009765625, 3.64227294921875, 3.64227294921875, 3.6505126953125, 3.6505126953125, 3.6798095703125, 3.6798095703125, 3.6798095703125, 3.6798095703125, 3.68743896484375, 3.68743896484375, 3.6566162109375, 3.6566162109375, 3.6273193359375, 3.6273193359375, 3.57421875, 3.57421875, 3.57421875, 3.57421875, 3.58734130859375, 3.58734130859375, 3.5980224609375, 3.5980224609375, 3.57513427734375, 3.57513427734375, 3.56109619140625, 3.56109619140625, 3.56109619140625, 3.56109619140625, 3.551025390625, 3.551025390625, 3.55010986328125, 3.55010986328125, 3.53546142578125, 3.53546142578125, 3.53546142578125, 3.53546142578125, 3.5302734375, 3.5302734375, 3.53668212890625, 3.53668212890625, 3.54278564453125, 3.54278564453125, 3.5302734375, 3.5302734375, 3.5302734375, 3.5302734375, 3.53607177734375, 3.53607177734375, 3.55682373046875, 3.55682373046875, 3.54888916015625, 3.54888916015625, 3.54522705078125, 3.54522705078125, 3.54522705078125, 3.54522705078125, 3.57208251953125, 3.57208251953125, 3.57452392578125, 3.57452392578125, 3.5504150390625, 3.5504150390625, 3.572998046875, 3.572998046875, 3.572998046875, 3.572998046875, 3.607177734375, 3.607177734375, 3.60382080078125, 3.60382080078125, 3.65264892578125, 3.65264892578125, 3.65264892578125, 3.65264892578125, 3.6944580078125, 3.6944580078125]",0.3507804966000892,-1.7228471835823314,accepted,2.006493200082332,2.327648299979046
pgACC-TUS-staircase,,1,2024-02-13_11h53.12.763,None,03,,,-0.07232666015625,4.859837123325893,4.543660481770833,4.2149658203125,4.379313151041666,4.451639811197916,6,22,27,22,91,8,10,9.215942244439077,"[0.0640869140625, 0.06378173828125, 0.06378173828125, 0.0640869140625, 0.0634765625, 0.0634765625, 0.06378173828125, 0.06378173828125, 0.0634765625, 0.0634765625, 0.06378173828125, 0.06256103515625, 0.06256103515625, 0.06256103515625, 0.06317138671875, 0.06256103515625, 0.06256103515625, 0.062255859375, 0.06256103515625, 0.06256103515625, 0.06256103515625, 0.062255859375, 0.0628662109375, 0.0628662109375, 0.0628662109375, 0.06317138671875, 0.06317138671875, 0.0634765625, 0.0640869140625, 0.0640869140625, 0.064697265625, 0.06561279296875, 0.06927490234375, 0.07293701171875, 0.07293701171875, 0.07904052734375, 0.09033203125, 0.09033203125, 0.10345458984375, 0.11474609375, 0.12908935546875, 0.1458740234375, 0.1458740234375, 0.19317626953125, 0.24139404296875, 0.28717041015625, 0.4315185546875, 0.4315185546875, 0.5963134765625, 0.7861328125, 0.7861328125, 1.055908203125, 1.21429443359375, 1.346435546875, 1.54296875, 1.54296875, 1.64154052734375, 1.8121337890625, 1.99951171875, 1.99951171875, 2.08099365234375, 2.14080810546875, 2.23876953125, 2.364501953125, 2.364501953125, 2.481689453125, 2.51800537109375, 2.61688232421875, 2.7044677734375, 2.7044677734375, 2.76092529296875, 2.76153564453125, 2.76092529296875, 2.76092529296875, 2.8302001953125, 2.90283203125, 2.9315185546875, 2.94036865234375, 2.94036865234375, 2.9541015625, 2.9962158203125, 3.02581787109375, 3.02581787109375, 3.07098388671875, 3.143310546875, 3.18572998046875, 3.2232666015625, 3.2232666015625, 3.27423095703125, 3.35296630859375, 3.38714599609375, 3.4185791015625, 3.4185791015625, 3.45611572265625, 3.49945068359375, 3.55133056640625, 3.55133056640625, 3.55133056640625, 3.55133056640625, 3.5992431640625, 3.5992431640625, 3.63006591796875, 3.63006591796875, 3.67584228515625, 3.67584228515625, 3.69842529296875, 3.69842529296875, 3.69842529296875, 3.69842529296875, 3.72314453125, 3.72314453125, 3.73260498046875, 3.73260498046875, 3.73077392578125, 3.73077392578125, 3.7493896484375, 3.7493896484375, 3.7493896484375, 3.7493896484375, 3.77349853515625, 3.77349853515625, 3.7847900390625, 3.7847900390625, 3.8031005859375, 3.8031005859375, 3.8201904296875, 3.8201904296875, 3.8201904296875, 3.8201904296875, 3.819580078125, 3.819580078125, 3.8214111328125, 3.8214111328125, 3.83514404296875, 3.83514404296875, 3.83514404296875, 3.83514404296875, 3.8507080078125, 3.8507080078125, 3.88031005859375, 3.88031005859375, 3.87725830078125, 3.87725830078125, 3.896484375, 3.896484375, 3.896484375, 3.896484375, 3.91357421875, 3.91357421875, 3.9166259765625, 3.9166259765625, 3.90228271484375, 3.90228271484375, 3.91448974609375, 3.91448974609375, 3.91448974609375, 3.91448974609375, 3.91845703125, 3.91845703125, 3.92303466796875, 3.92303466796875, 3.93096923828125, 3.93096923828125, 3.93096923828125, 3.93096923828125, 3.94775390625, 3.94775390625, 3.96148681640625, 3.96148681640625, 3.953857421875, 3.953857421875, 3.96240234375, 3.96240234375, 3.96240234375, 3.96240234375, 3.96759033203125, 3.96759033203125, 3.97369384765625, 3.97369384765625, 3.97674560546875, 3.97674560546875, 4.00115966796875, 4.00115966796875, 4.00115966796875, 4.00115966796875, 3.99566650390625, 3.99566650390625, 3.99810791015625, 3.99810791015625, 3.9898681640625, 3.9898681640625, 3.9898681640625, 3.9898681640625, 3.98773193359375, 3.98773193359375, 3.98712158203125, 3.98712158203125, 4.00726318359375, 4.00726318359375, 4.01336669921875, 4.01336669921875, 4.01336669921875, 4.01336669921875, 4.031982421875, 4.031982421875, 4.03045654296875, 4.03045654296875, 4.03289794921875, 4.03289794921875, 4.04022216796875, 4.04022216796875, 4.04022216796875, 4.04022216796875, 4.03717041015625, 4.03717041015625, 4.03594970703125, 4.03594970703125]",0.2825125546030764,-0.44995178240570866,accepted,2.604112599976361,2.565612999955192
pgACC-TUS-staircase,,1,2024-02-13_11h53.12.763,None,03,,,-0.07232666015625,4.859837123325893,4.543660481770833,4.2149658203125,4.379313151041666,4.451639811197916,7,27,9,0,91,10,6,0,"[]",0.2825125546030764,-1.2512554603076396,rejected,3.4042776999995112,0
pgACC-TUS-staircase,,1,2024-02-13_11h53.12.763,None,03,,,-0.07232666015625,4.859837123325893,4.543660481770833,4.2149658203125,4.379313151041666,4.451639811197916,8,9,11,9,100,6,7,7.4020218162897455,"[0.0482177734375, 0.0482177734375, 0.04791259765625, 0.0482177734375, 0.0469970703125, 0.0469970703125, 0.047607421875, 0.047607421875, 0.0482177734375, 0.0482177734375, 0.048828125, 0.0482177734375, 0.04852294921875, 0.04852294921875, 0.048828125, 0.047607421875, 0.04791259765625, 0.04791259765625, 0.0482177734375, 0.04730224609375, 0.047607421875, 0.04791259765625, 0.04791259765625, 0.047607421875, 0.04791259765625, 0.04791259765625, 0.04791259765625, 0.0482177734375, 0.047607421875, 0.04852294921875, 0.050048828125, 0.050048828125, 0.05126953125, 0.05218505859375, 0.0592041015625, 0.0762939453125, 0.0762939453125, 0.08880615234375, 0.09979248046875, 0.11199951171875, 0.11199951171875, 0.13702392578125, 0.1678466796875, 0.2288818359375, 0.29449462890625, 0.29449462890625, 0.40496826171875, 0.54779052734375, 0.7196044921875, 0.92071533203125, 0.92071533203125, 1.15478515625, 1.28021240234375, 1.3848876953125, 1.3848876953125, 1.55242919921875, 1.65985107421875, 1.7938232421875, 1.7938232421875, 1.91436767578125, 2.039794921875, 2.1221923828125, 2.242431640625, 2.242431640625, 2.26959228515625, 2.31048583984375, 2.36053466796875, 2.39105224609375, 2.39105224609375, 2.4151611328125, 2.4505615234375, 2.4609375, 2.4542236328125, 2.4542236328125, 2.44781494140625, 2.46612548828125, 2.49053955078125, 2.48138427734375, 2.48138427734375, 2.47894287109375, 2.490234375, 2.51220703125, 2.5567626953125, 2.59552001953125, 2.59552001953125, 2.63641357421875, 2.63641357421875, 2.67852783203125, 2.67852783203125, 2.701416015625, 2.701416015625, 2.74261474609375, 2.74261474609375, 2.74261474609375, 2.74261474609375, 2.7978515625, 2.7978515625, 2.88421630859375, 2.88421630859375, 2.9071044921875, 2.9071044921875, 2.9071044921875, 2.9071044921875, 2.9180908203125, 2.9180908203125, 2.9345703125, 2.9345703125, 2.98614501953125, 2.98614501953125, 2.98614501953125, 2.98614501953125, 3.01849365234375, 3.01849365234375, 3.0499267578125, 3.0499267578125, 3.10577392578125, 3.10577392578125, 3.10577392578125, 3.10577392578125, 3.135986328125, 3.135986328125, 3.12408447265625, 3.12408447265625, 3.13934326171875, 3.13934326171875, 3.12713623046875, 3.12713623046875, 3.12713623046875, 3.12713623046875, 3.05816650390625, 3.05816650390625, 3.01788330078125, 3.01788330078125, 3.03680419921875, 3.03680419921875, 3.03680419921875, 3.03680419921875, 3.05572509765625, 3.05572509765625, 3.05267333984375, 3.05267333984375, 3.082275390625, 3.082275390625, 3.10394287109375, 3.10394287109375, 3.10394287109375, 3.10394287109375, 3.14239501953125, 3.14239501953125, 3.16436767578125, 3.16436767578125, 3.199462890625, 3.199462890625, 3.199462890625, 3.199462890625, 3.25164794921875, 3.25164794921875, 3.2763671875, 3.2763671875, 3.2940673828125, 3.2940673828125, 3.2940673828125, 3.2940673828125, 3.31268310546875, 3.31268310546875, 3.31207275390625, 3.31207275390625, 3.30108642578125, 3.30108642578125, 3.27362060546875, 3.27362060546875, 3.27362060546875, 3.27362060546875, 3.267822265625, 3.267822265625, 3.2684326171875, 3.2684326171875, 3.24249267578125, 3.24249267578125, 3.2257080078125, 3.2257080078125, 3.2257080078125, 3.2257080078125, 3.20465087890625, 3.20465087890625, 3.20404052734375, 3.20404052734375, 3.20556640625, 3.20556640625, 3.203125, 3.203125, 3.2171630859375, 3.2171630859375, 3.2489013671875, 3.2489013671875, 3.2470703125, 3.2470703125, 3.2470703125, 3.2470703125, 3.21044921875, 3.21044921875, 3.2196044921875, 3.2196044921875, 3.2415771484375, 3.2415771484375, 3.2415771484375, 3.2415771484375]",0.21995769588943945,-1.1704519657107504,accepted,1.6017849000636488,2.4153652999084443
pgACC-TUS-staircase,,1,2024-02-13_11h53.12.763,None,03,,,-0.07232666015625,4.859837123325893,4.543660481770833,4.2149658203125,4.379313151041666,4.451639811197916,9,11,23,11,111,7,10,7.056380428520991,"[0.062255859375, 0.06195068359375, 0.06195068359375, 0.0616455078125, 0.06134033203125, 0.06134033203125, 0.06072998046875, 0.06072998046875, 0.06072998046875, 0.05889892578125, 0.05889892578125, 0.05889892578125, 0.05859375, 0.05859375, 0.05859375, 0.05859375, 0.05828857421875, 0.05828857421875, 0.05828857421875, 0.05828857421875, 0.05828857421875, 0.0579833984375, 0.05828857421875, 0.05828857421875, 0.05828857421875, 0.05828857421875, 0.05767822265625, 0.057373046875, 0.057373046875, 0.05706787109375, 0.05706787109375, 0.05615234375, 0.05615234375, 0.05523681640625, 0.05615234375, 0.0604248046875, 0.07537841796875, 0.07537841796875, 0.08941650390625, 0.0982666015625, 0.10955810546875, 0.10955810546875, 0.123291015625, 0.1324462890625, 0.1458740234375, 0.2166748046875, 0.2166748046875, 0.267333984375, 0.308837890625, 0.38543701171875, 0.38543701171875, 0.5487060546875, 0.70526123046875, 0.89569091796875, 1.0687255859375, 1.0687255859375, 1.224365234375, 1.378173828125, 1.59942626953125, 1.7584228515625, 1.7584228515625, 1.9476318359375, 2.076416015625, 2.20977783203125, 2.32269287109375, 2.32269287109375, 2.43499755859375, 2.59735107421875, 2.6934814453125, 2.73468017578125, 2.73468017578125, 2.874755859375, 2.95013427734375, 2.95745849609375, 2.95745849609375, 2.94464111328125, 2.93792724609375, 2.93060302734375, 2.93060302734375, 2.93609619140625, 2.94036865234375, 2.93914794921875, 2.919921875, 2.919921875, 2.916259765625, 2.94036865234375, 2.9351806640625, 2.9351806640625, 2.92205810546875, 2.9400634765625, 2.9498291015625, 2.9498291015625, 2.97271728515625, 3.033447265625, 3.0889892578125, 3.0889892578125, 3.13018798828125, 3.13018798828125, 3.13018798828125, 3.13018798828125, 3.17108154296875, 3.17108154296875, 3.2379150390625, 3.2379150390625, 3.3099365234375, 3.3099365234375, 3.35784912109375, 3.35784912109375, 3.35784912109375, 3.35784912109375, 3.3868408203125, 3.3868408203125, 3.4295654296875, 3.4295654296875, 3.46710205078125, 3.46710205078125, 3.46710205078125, 3.46710205078125, 3.4954833984375, 3.4954833984375, 3.52508544921875, 3.52508544921875, 3.5467529296875, 3.5467529296875, 3.544921875, 3.544921875, 3.544921875, 3.544921875, 3.544921875, 3.544921875, 3.5748291015625, 3.5748291015625, 3.5784912109375, 3.5784912109375, 3.60382080078125, 3.60382080078125, 3.60382080078125, 3.60382080078125, 3.5748291015625, 3.5748291015625, 3.5614013671875, 3.5614013671875, 3.5528564453125, 3.5528564453125, 3.53729248046875, 3.53729248046875, 3.53729248046875, 3.53729248046875, 3.50311279296875, 3.50311279296875, 3.48785400390625, 3.48785400390625, 3.477783203125, 3.477783203125, 3.477783203125, 3.477783203125, 3.49090576171875, 3.49090576171875, 3.47137451171875, 3.47137451171875, 3.4552001953125, 3.4552001953125, 3.4429931640625, 3.4429931640625, 3.4429931640625, 3.4429931640625, 3.43597412109375, 3.43597412109375, 3.414306640625, 3.414306640625, 3.392333984375, 3.392333984375, 3.392333984375, 3.392333984375, 3.3551025390625, 3.3551025390625, 3.363037109375, 3.363037109375, 3.350830078125, 3.350830078125, 3.350830078125, 3.350830078125, 3.32122802734375, 3.32122802734375, 3.314208984375, 3.314208984375, 3.2928466796875, 3.2928466796875, 3.27056884765625, 3.27056884765625, 3.27056884765625, 3.27056884765625, 3.26629638671875, 3.26629638671875, 3.26568603515625, 3.26568603515625, 3.25714111328125, 3.25714111328125, 3.23486328125, 3.23486328125, 3.23486328125, 3.23486328125, 3.21502685546875, 3.21502685546875, 3.16650390625, 3.16650390625, 3.11553955078125, 3.11553955078125, 3.07342529296875, 3.07342529296875, 3.07342529296875, 3.07342529296875, 3.07281494140625, 3.07281494140625, 3.0902099609375, 3.0902099609375]",0.21995769588943945,0.2220729014174676,accepted,5.3612647000700235,2.559277200140059
pgACC-TUS-staircase,,1,2024-02-13_11h53.12.763,None,03,,,-0.07232666015625,4.859837123325893,4.543660481770833,4.2149658203125,4.379313151041666,4.451639811197916,10,23,19,0,111,10,8,0,"[]",0.27843838267713145,1.0042304110560565,rejected,2.6253096000291407,0
pgACC-TUS-staircase,,1,2024-02-13_11h53.12.763,None,03,,,-0.07232666015625,4.859837123325893,4.543660481770833,4.2149658203125,4.379313151041666,4.451639811197916,11,19,6,0,111,8,4,0,"[]",0.3352768599306241,1.1799435086635874,rejected,2.900625200010836,0
pgACC-TUS-staircase,,1,2024-02-13_11h53.12.763,None,03,,,-0.07232666015625,4.859837123325893,4.543660481770833,4.2149658203125,4.379313151041666,4.451639811197916,12,6,22,6,117,4,8,5.897506178804379,"[0.03875732421875, 0.03936767578125, 0.03936767578125, 0.03936767578125, 0.0396728515625, 0.0396728515625, 0.0396728515625, 0.0390625, 0.03875732421875, 0.0390625, 0.0390625, 0.0390625, 0.03875732421875, 0.03875732421875, 0.03875732421875, 0.037841796875, 0.03936767578125, 0.0390625, 0.0390625, 0.03936767578125, 0.03997802734375, 0.0396728515625, 0.03997802734375, 0.03997802734375, 0.0390625, 0.03997802734375, 0.0396728515625, 0.03997802734375, 0.03997802734375, 0.0396728515625, 0.03997802734375, 0.040283203125, 0.040283203125, 0.04058837890625, 0.04150390625, 0.04547119140625, 0.05401611328125, 0.05401611328125, 0.06256103515625, 0.0732421875, 0.0836181640625, 0.0836181640625, 0.10284423828125, 0.1141357421875, 0.13580322265625, 0.1568603515625, 0.1568603515625, 0.19927978515625, 0.2545166015625, 0.2850341796875, 0.2850341796875, 0.34454345703125, 0.4766845703125, 0.5877685546875, 0.5877685546875, 0.73028564453125, 0.90057373046875, 1.03973388671875, 1.20574951171875, 1.20574951171875, 1.32293701171875, 1.45599365234375, 1.56646728515625, 1.632080078125, 1.632080078125, 1.7498779296875, 1.82891845703125, 1.82891845703125, 1.87774658203125, 1.87774658203125, 1.87774658203125, 1.87774658203125, 1.93603515625, 1.93603515625, 2.0269775390625, 2.0269775390625, 2.05413818359375, 2.05413818359375, 2.05810546875, 2.05810546875, 2.05810546875, 2.05810546875, 2.0880126953125, 2.0880126953125, 2.11669921875, 2.11669921875, 2.1112060546875, 2.1112060546875, 2.1112060546875, 2.1112060546875, 2.0855712890625, 2.0855712890625, 2.0574951171875, 2.0574951171875, 2.05657958984375, 2.05657958984375, 2.05902099609375, 2.05902099609375, 2.05902099609375, 2.05902099609375, 2.07489013671875, 2.07489013671875, 2.07366943359375, 2.07366943359375, 2.0538330078125, 2.0538330078125, 2.05108642578125, 2.05108642578125, 2.05108642578125, 2.05108642578125, 2.08831787109375, 2.08831787109375, 2.122802734375, 2.122802734375, 2.1722412109375, 2.1722412109375, 2.1722412109375, 2.1722412109375, 2.24029541015625, 2.24029541015625, 2.2991943359375, 2.2991943359375, 2.38037109375, 2.38037109375, 2.38037109375, 2.38037109375, 2.4151611328125, 2.4151611328125, 2.4432373046875, 2.4432373046875, 2.45819091796875, 2.45819091796875, 2.421875, 2.421875, 2.421875, 2.421875, 2.4090576171875, 2.4090576171875, 2.3828125, 2.3828125, 2.37152099609375, 2.37152099609375, 2.379150390625, 2.379150390625, 2.379150390625, 2.379150390625, 2.37640380859375, 2.37640380859375, 2.38037109375, 2.38037109375, 2.4163818359375, 2.4163818359375, 2.4163818359375, 2.4163818359375, 2.423095703125, 2.423095703125, 2.44842529296875, 2.44842529296875, 2.47283935546875, 2.47283935546875, 2.47283935546875, 2.47283935546875, 2.5067138671875, 2.5067138671875, 2.5341796875, 2.5341796875, 2.545166015625, 2.545166015625, 2.60162353515625, 2.60162353515625, 2.60162353515625, 2.60162353515625, 2.620849609375, 2.620849609375, 2.6251220703125, 2.6251220703125, 2.6177978515625, 2.6177978515625, 2.5848388671875, 2.5848388671875, 2.5848388671875, 2.5848388671875, 2.58544921875, 2.58544921875, 2.58392333984375, 2.58392333984375, 2.58270263671875, 2.58270263671875]",0.3352768599306241,0.6355702411100141,accepted,1.4455069999676198,2.091416500043124
pgACC-TUS-staircase,,1,2024-02-13_11h53.12.763,None,03,,,-0.07232666015625,4.859837123325893,4.543660481770833,4.2149658203125,4.379313151041666,4.451639811197916,13,22,15,22,139,8,7,8.18807723040901,"[0.0250244140625, 0.0250244140625, 0.0238037109375, 0.02044677734375, 0.0189208984375, 0.0189208984375, 0.01708984375, 0.01556396484375, 0.01434326171875, 0.01434326171875, 0.01495361328125, 0.0152587890625, 0.01556396484375, 0.01556396484375, 0.0164794921875, 0.0164794921875, 0.015869140625, 0.015869140625, 0.01617431640625, 0.015869140625, 0.01556396484375, 0.02593994140625, 0.02593994140625, 0.03662109375, 0.0433349609375, 0.04730224609375, 0.04730224609375, 0.04730224609375, 0.0384521484375, 0.02838134765625, 0.02349853515625, 0.02349853515625, 0.0225830078125, 0.02197265625, 0.0213623046875, 0.02197265625, 0.02197265625, 0.0213623046875, 0.0225830078125, 0.0390625, 0.06439208984375, 0.06439208984375, 0.09002685546875, 0.1141357421875, 0.15228271484375, 0.15228271484375, 0.22552490234375, 0.269775390625, 0.31707763671875, 0.49530029296875, 0.49530029296875, 0.6536865234375, 0.86212158203125, 1.02630615234375, 1.185302734375, 1.185302734375, 1.30859375, 1.51336669921875, 1.63177490234375, 1.7266845703125, 1.7266845703125, 1.83380126953125, 1.98211669921875, 2.061767578125, 2.10723876953125, 2.10723876953125, 2.1820068359375, 2.29248046875, 2.38616943359375, 2.38616943359375, 2.4346923828125, 2.46795654296875, 2.50274658203125, 2.55950927734375, 2.55950927734375, 2.5958251953125, 2.68218994140625, 2.706298828125, 2.706298828125, 2.71728515625, 2.769775390625, 2.85614013671875, 2.87994384765625, 2.87994384765625, 2.9058837890625, 2.93365478515625, 2.960205078125, 2.960205078125, 2.99591064453125, 3.013916015625, 3.0291748046875, 3.0291748046875, 3.08319091796875, 3.1134033203125, 3.128662109375, 3.15673828125, 3.15673828125, 3.172607421875, 3.21990966796875, 3.2550048828125, 3.27392578125, 3.27392578125, 3.28643798828125, 3.31787109375, 3.34991455078125, 3.34991455078125, 3.38226318359375, 3.4246826171875, 3.47137451171875, 3.47137451171875, 3.438720703125, 3.4130859375, 3.4210205078125, 3.421630859375, 3.421630859375, 3.41461181640625, 3.40423583984375, 3.3795166015625, 3.3795166015625, 3.39019775390625, 3.40301513671875, 3.40240478515625, 3.41522216796875, 3.41522216796875, 3.441162109375, 3.46435546875, 3.46710205078125, 3.46710205078125, 3.47137451171875, 3.49700927734375, 3.5101318359375, 3.5101318359375, 3.52935791015625, 3.52935791015625, 3.52935791015625, 3.52935791015625, 3.5565185546875, 3.5565185546875, 3.54705810546875, 3.54705810546875, 3.5467529296875, 3.5467529296875, 3.5467529296875, 3.5467529296875, 3.5797119140625, 3.5797119140625, 3.592529296875, 3.592529296875, 3.603515625, 3.603515625, 3.658447265625, 3.658447265625, 3.658447265625, 3.658447265625, 3.66058349609375, 3.66058349609375, 3.65570068359375, 3.65570068359375, 3.66943359375, 3.66943359375, 3.66943359375, 3.66943359375, 3.6798095703125, 3.6798095703125, 3.69476318359375, 3.69476318359375, 3.7017822265625, 3.7017822265625, 3.7017822265625, 3.7017822265625, 3.7060546875, 3.7060546875, 3.71124267578125, 3.71124267578125, 3.72955322265625, 3.72955322265625, 3.73870849609375, 3.73870849609375, 3.73870849609375, 3.73870849609375, 3.74053955078125, 3.74053955078125, 3.74755859375, 3.74755859375, 3.74725341796875, 3.74725341796875, 3.74725341796875, 3.74725341796875, 3.7445068359375, 3.7445068359375, 3.74847412109375, 3.74847412109375, 3.7213134765625, 3.7213134765625, 3.67706298828125, 3.67706298828125, 3.67706298828125, 3.67706298828125, 3.62091064453125, 3.62091064453125, 3.58123779296875, 3.58123779296875, 3.55987548828125, 3.55987548828125, 3.55987548828125, 3.55987548828125, 3.5400390625, 3.5400390625, 3.56414794921875, 3.56414794921875, 3.57879638671875, 3.57879638671875, 3.5748291015625, 3.5748291015625, 3.5748291015625, 3.5748291015625, 3.58428955078125, 3.58428955078125, 3.5931396484375, 3.5931396484375, 3.59283447265625, 3.59283447265625, 3.5943603515625, 3.5943603515625, 3.5943603515625, 3.5943603515625, 3.5968017578125, 3.5968017578125, 3.60626220703125, 3.60626220703125, 3.5882568359375, 3.5882568359375, 3.5882568359375, 3.5882568359375, 3.5479736328125, 3.5479736328125, 3.53546142578125, 3.53546142578125, 3.5418701171875, 3.5418701171875, 3.56201171875, 3.56201171875, 3.56201171875, 3.56201171875, 3.5723876953125, 3.5723876953125, 3.57177734375, 3.57177734375, 3.577880859375, 3.577880859375, 3.577880859375, 3.577880859375, 3.5858154296875, 3.5858154296875]",0.3352768599306241,0.5422809644400566,accepted,4.991679299855605,3.174487499985844
pgACC-TUS-staircase,,1,2024-02-13_11h53.12.763,None,03,,,-0.07232666015625,4.859837123325893,4.543660481770833,4.2149658203125,4.379313151041666,4.451639811197916,14,15,26,15,154,7,10,7.751844349878283,"[0.06317138671875, 0.06317138671875, 0.06134033203125, 0.0604248046875, 0.0604248046875, 0.06195068359375, 0.06378173828125, 0.06561279296875, 0.06561279296875, 0.06622314453125, 0.06561279296875, 0.06561279296875, 0.06683349609375, 0.0689697265625, 0.0714111328125, 0.0714111328125, 0.07598876953125, 0.084228515625, 0.09246826171875, 0.0982666015625, 0.0982666015625, 0.1025390625, 0.10650634765625, 0.1177978515625, 0.1177978515625, 0.12847900390625, 0.13519287109375, 0.14434814453125, 0.1611328125, 0.1611328125, 0.17791748046875, 0.19012451171875, 0.2020263671875, 0.2020263671875, 0.250244140625, 0.30242919921875, 0.48492431640625, 0.48492431640625, 0.6378173828125, 0.82061767578125, 0.9954833984375, 1.21246337890625, 1.21246337890625, 1.3470458984375, 1.52923583984375, 1.64703369140625, 1.64703369140625, 1.80450439453125, 1.920166015625, 2.05902099609375, 2.1795654296875, 2.1795654296875, 2.24609375, 2.27325439453125, 2.32574462890625, 2.32574462890625, 2.4139404296875, 2.48992919921875, 2.5177001953125, 2.5177001953125, 2.60498046875, 2.6812744140625, 2.6910400390625, 2.7008056640625, 2.7008056640625, 2.69744873046875, 2.68341064453125, 2.67730712890625, 2.67730712890625, 2.66082763671875, 2.66754150390625, 2.68096923828125, 2.68096923828125, 2.6995849609375, 2.750244140625, 2.78839111328125, 2.80059814453125, 2.80059814453125, 2.8533935546875, 2.9290771484375, 2.97943115234375, 2.97943115234375, 3.01422119140625, 3.114013671875, 3.114013671875, 3.20098876953125, 3.20098876953125, 3.2305908203125, 3.2305908203125, 3.2305908203125, 3.2305908203125, 3.23944091796875, 3.23944091796875, 3.25164794921875, 3.25164794921875, 3.26507568359375, 3.26507568359375, 3.26507568359375, 3.26507568359375, 3.25439453125, 3.25439453125, 3.2421875, 3.2421875, 3.2525634765625, 3.2525634765625, 3.2733154296875, 3.2733154296875, 3.2733154296875, 3.2733154296875, 3.26385498046875, 3.26385498046875, 3.21380615234375, 3.21380615234375, 3.19366455078125, 3.19366455078125, 3.19366455078125, 3.19366455078125, 3.1500244140625, 3.1500244140625, 3.12103271484375, 3.12103271484375, 3.11279296875, 3.11279296875, 3.11279296875, 3.11279296875, 3.1060791015625, 3.1060791015625, 3.09814453125, 3.09814453125, 3.087158203125, 3.087158203125, 3.087158203125, 3.087158203125, 3.0938720703125, 3.0938720703125, 3.12164306640625, 3.12164306640625, 3.135986328125, 3.135986328125, 3.135986328125, 3.135986328125, 3.13079833984375, 3.13079833984375, 3.1280517578125, 3.1280517578125, 3.165283203125, 3.165283203125, 3.19976806640625, 3.19976806640625, 3.19976806640625, 3.19976806640625, 3.2183837890625, 3.2183837890625, 3.21685791015625, 3.21685791015625, 3.255615234375, 3.255615234375, 3.255615234375, 3.255615234375, 3.27880859375, 3.27880859375, 3.26995849609375, 3.26995849609375, 3.272705078125, 3.272705078125, 3.31024169921875, 3.31024169921875, 3.31024169921875, 3.31024169921875, 3.319091796875, 3.319091796875, 3.31512451171875, 3.31512451171875, 3.35540771484375, 3.35540771484375, 3.35540771484375, 3.35540771484375, 3.3685302734375, 3.3685302734375, 3.36822509765625, 3.36822509765625, 3.37432861328125, 3.37432861328125, 3.37432861328125, 3.37432861328125, 3.37890625, 3.37890625, 3.37646484375, 3.37646484375, 3.380126953125, 3.380126953125, 3.40911865234375, 3.40911865234375, 3.40911865234375, 3.40911865234375, 3.41278076171875, 3.41278076171875, 3.38714599609375, 3.38714599609375, 3.4027099609375, 3.4027099609375, 3.4027099609375, 3.4027099609375, 3.394775390625, 3.394775390625]",0.28233344135090993,-1.4285661366005833,accepted,4.135512199951336,2.3653482000809163
pgACC-TUS-staircase,,1,2024-02-13_11h53.12.763,None,03,,,-0.07232666015625,4.859837123325893,4.543660481770833,4.2149658203125,4.379313151041666,4.451639811197916,15,26,18,0,154,10,8,0,"[]",0.28233344135090993,-2.2333441350909915,rejected,1.575146900024265,0
pgACC-TUS-staircase,,1,2024-02-13_11h53.12.763,None,03,,,-0.07232666015625,4.859837123325893,4.543660481770833,4.2149658203125,4.379313151041666,4.451639811197916,16,18,4,0,154,8,3,0,"[]",0.28233344135090993,-0.06934024645823555,rejected,3.6745676998980343,0
pgACC-TUS-staircase,,1,2024-02-13_11h53.12.763,None,03,,,-0.07232666015625,4.859837123325893,4.543660481770833,4.2149658203125,4.379313151041666,4.451639811197916,17,4,23,4,158,3,9,3.744216081615967,"[0.0433349609375, 0.0433349609375, 0.0433349609375, 0.0439453125, 0.0439453125, 0.04425048828125, 0.04364013671875, 0.04364013671875, 0.04364013671875, 0.0433349609375, 0.04302978515625, 0.04302978515625, 0.04241943359375, 0.0433349609375, 0.0433349609375, 0.04302978515625, 0.04302978515625, 0.0433349609375, 0.04364013671875, 0.04364013671875, 0.0439453125, 0.04364013671875, 0.04364013671875, 0.04364013671875, 0.0439453125, 0.0433349609375, 0.0439453125, 0.04486083984375, 0.04486083984375, 0.04608154296875, 0.0469970703125, 0.047607421875, 0.047607421875, 0.0482177734375, 0.05889892578125, 0.07293701171875, 0.07293701171875, 0.09368896484375, 0.1220703125, 0.2020263671875, 0.29052734375, 0.29052734375, 0.39703369140625, 0.53985595703125, 0.6378173828125, 0.6378173828125, 0.73944091796875, 0.89935302734375, 0.95916748046875, 1.070556640625, 1.070556640625, 1.14837646484375, 1.21826171875, 1.2933349609375, 1.2933349609375, 1.35498046875, 1.35498046875, 1.4801025390625, 1.4801025390625, 1.55029296875, 1.55029296875, 1.6021728515625, 1.6021728515625, 1.6021728515625, 1.6021728515625, 1.63238525390625, 1.63238525390625, 1.64642333984375, 1.64642333984375, 1.6534423828125, 1.6534423828125, 1.6534423828125, 1.6534423828125, 1.6680908203125, 1.6680908203125, 1.66595458984375, 1.66595458984375, 1.64947509765625, 1.64947509765625, 1.6363525390625, 1.6363525390625, 1.6363525390625, 1.6363525390625, 1.63848876953125, 1.63848876953125, 1.64093017578125, 1.64093017578125, 1.6400146484375, 1.6400146484375, 1.64306640625, 1.64306640625, 1.64306640625, 1.64306640625, 1.658935546875, 1.658935546875, 1.66839599609375, 1.66839599609375, 1.66900634765625, 1.66900634765625, 1.689453125, 1.689453125, 1.689453125, 1.689453125, 1.6900634765625, 1.6900634765625, 1.70745849609375, 1.70745849609375, 1.70745849609375, 1.70745849609375, 1.73828125, 1.73828125, 1.74468994140625, 1.74468994140625, 1.70654296875, 1.70654296875, 1.70654296875, 1.661376953125, 1.661376953125, 1.661376953125, 1.65618896484375, 1.65618896484375, 1.65374755859375, 1.65374755859375, 1.6497802734375, 1.6497802734375, 1.64306640625, 1.64306640625, 1.64306640625, 1.64306640625, 1.64154052734375, 1.64154052734375, 1.64947509765625, 1.64947509765625, 1.64947509765625, 1.64947509765625, 1.644287109375, 1.644287109375, 1.6302490234375, 1.6302490234375, 1.6302490234375, 1.6302490234375, 1.62261962890625, 1.62261962890625, 1.62567138671875, 1.62567138671875, 1.62811279296875, 1.62811279296875, 1.63818359375, 1.63818359375, 1.63818359375, 1.63818359375, 1.64276123046875, 1.64276123046875, 1.64642333984375, 1.64642333984375, 1.64794921875, 1.64794921875, 1.64794921875, 1.64794921875, 1.65313720703125, 1.65313720703125, 1.651611328125, 1.651611328125, 1.64215087890625, 1.64215087890625, 1.64215087890625, 1.64215087890625, 1.63543701171875, 1.63543701171875, 1.6375732421875, 1.6375732421875, 1.63848876953125, 1.63848876953125, 1.63970947265625, 1.63970947265625, 1.63970947265625, 1.63970947265625]",0.28233344135090993,1.4589990278418106,accepted,2.318587000016123,1.9014999999199063
pgACC-TUS-staircase,,1,2024-02-13_11h53.12.763,None,03,,,-0.07232666015625,4.859837123325893,4.543660481770833,4.2149658203125,4.379313151041666,4.451639811197916,18,23,14,0,158,9,6,0,"[]",0.3316022521638676,0.13099125057629735,rejected,2.048916900064796,0
pgACC-TUS-staircase,,1,2024-02-13_11h53.12.763,None,03,,,-0.07232666015625,4.859837123325893,4.543660481770833,4.2149658203125,4.379313151041666,4.451639811197916,19,14,30,14,172,6,9,7.234079125861782,"[0.0482177734375, 0.04852294921875, 0.04791259765625, 0.04669189453125, 0.04669189453125, 0.0433349609375, 0.0433349609375, 0.04241943359375, 0.04241943359375, 0.04302978515625, 0.042724609375, 0.042724609375, 0.0433349609375, 0.04425048828125, 0.04486083984375, 0.04486083984375, 0.05401611328125, 0.05859375, 0.06591796875, 0.06591796875, 0.074462890625, 0.08392333984375, 0.09033203125, 0.09490966796875, 0.09490966796875, 0.09765625, 0.10040283203125, 0.1080322265625, 0.1123046875, 0.1123046875, 0.12176513671875, 0.13427734375, 0.142822265625, 0.142822265625, 0.14495849609375, 0.1446533203125, 0.15533447265625, 0.19866943359375, 0.19866943359375, 0.2386474609375, 0.28076171875, 0.33477783203125, 0.33477783203125, 0.4205322265625, 0.5255126953125, 0.59722900390625, 0.59722900390625, 0.7110595703125, 0.93048095703125, 1.1224365234375, 1.24481201171875, 1.24481201171875, 1.35101318359375, 1.50787353515625, 1.627197265625, 1.627197265625, 1.7547607421875, 1.866455078125, 1.98028564453125, 2.080078125, 2.080078125, 2.16033935546875, 2.25677490234375, 2.25677490234375, 2.32177734375, 2.37274169921875, 2.41729736328125, 2.4652099609375, 2.4652099609375, 2.47406005859375, 2.4908447265625, 2.48382568359375, 2.48382568359375, 2.449951171875, 2.43560791015625, 2.43896484375, 2.452392578125, 2.452392578125, 2.4798583984375, 2.53173828125, 2.59552001953125, 2.59552001953125, 2.6495361328125, 2.6495361328125, 2.70721435546875, 2.70721435546875, 2.76763916015625, 2.76763916015625, 2.8497314453125, 2.8497314453125, 2.882080078125, 2.882080078125, 2.882080078125, 2.882080078125, 2.9150390625, 2.9150390625, 2.94281005859375, 2.94281005859375, 2.94281005859375, 2.94281005859375, 2.99713134765625, 2.99713134765625, 3.01849365234375, 3.01849365234375, 3.03741455078125, 3.03741455078125, 3.0816650390625, 3.0816650390625, 3.0816650390625, 3.0816650390625, 3.10791015625, 3.10791015625, 3.092041015625, 3.092041015625, 3.08197021484375, 3.08197021484375, 3.08197021484375, 3.08197021484375, 3.07891845703125, 3.07891845703125, 3.0499267578125, 3.0499267578125, 3.00384521484375, 3.00384521484375, 2.97760009765625, 2.97760009765625, 2.97760009765625, 2.97760009765625, 2.94586181640625, 2.94586181640625, 2.9351806640625, 2.9351806640625, 2.9034423828125, 2.9034423828125, 2.9034423828125, 2.9034423828125, 2.8045654296875, 2.8045654296875, 2.79327392578125, 2.79327392578125, 2.75390625, 2.75390625, 2.70294189453125, 2.70294189453125, 2.6702880859375, 2.6702880859375, 2.6702880859375, 2.6702880859375, 2.64678955078125, 2.64678955078125, 2.66326904296875, 2.66326904296875, 2.67181396484375, 2.67181396484375, 2.67181396484375, 2.67181396484375, 2.66998291015625, 2.66998291015625, 2.64007568359375, 2.64007568359375, 2.61871337890625, 2.618408203125, 2.6202392578125, 2.6202392578125, 2.66082763671875, 2.66082763671875, 2.67974853515625, 2.67974853515625, 2.686767578125, 2.686767578125, 2.686767578125, 2.686767578125, 2.70660400390625, 2.70660400390625, 2.7044677734375, 2.7044677734375, 2.745361328125, 2.745361328125, 2.841796875, 2.841796875, 2.841796875, 2.841796875, 2.86041259765625, 2.86041259765625, 2.8936767578125, 2.8936767578125, 2.94677734375, 2.94677734375, 2.94677734375, 2.94677734375, 3.0322265625, 3.0322265625, 3.0712890625, 3.0712890625, 3.08563232421875, 3.08563232421875, 3.10760498046875, 3.10760498046875, 3.10760498046875, 3.10760498046875, 3.11767578125, 3.11767578125, 3.111572265625, 3.111572265625, 3.121337890625, 3.121337890625, 3.121337890625, 3.121337890625, 3.1585693359375, 3.1585693359375, 3.194580078125, 3.194580078125, 3.19854736328125, 3.19854736328125, 3.22601318359375, 3.22601318359375, 3.22601318359375, 3.22601318359375, 3.26873779296875, 3.26873779296875, 3.27728271484375, 3.27728271484375, 3.29315185546875, 3.29315185546875, 3.3062744140625, 3.3062744140625, 3.3062744140625, 3.3062744140625, 3.31146240234375, 3.31146240234375, 3.33953857421875, 3.33953857421875, 3.33953857421875, 3.33953857421875, 3.33984375, 3.33984375, 3.31787109375, 3.31787109375, 3.31878662109375, 3.31878662109375, 3.302001953125, 3.302001953125, 3.302001953125, 3.302001953125, 3.275146484375, 3.275146484375, 3.25897216796875, 3.25897216796875, 3.20220947265625, 3.20220947265625, 3.20220947265625, 3.20220947265625, 3.17596435546875, 3.17596435546875, 3.18206787109375, 3.18206787109375, 3.1658935546875, 3.1658935546875, 3.2049560546875, 3.2049560546875, 3.2049560546875, 3.2049560546875, 3.25408935546875, 3.25408935546875, 3.23974609375, 3.23974609375, 3.23974609375, 3.23974609375, 3.2391357421875, 3.2391357421875, 3.23455810546875, 3.23455810546875, 3.2049560546875, 3.2049560546875, 3.2049560546875, 3.2049560546875, 3.1817626953125, 3.1817626953125, 3.18023681640625, 3.18023681640625, 3.18206787109375, 3.18206787109375, 3.18206787109375, 3.18206787109375, 3.16802978515625, 3.16802978515625]",0.3316022521638676,2.0623189221007667,accepted,1.4614230999723077,3.068725199904293
pgACC-TUS-staircase,,1,2024-02-13_11h53.12.763,None,03,,,-0.07232666015625,4.859837123325893,4.543660481770833,4.2149658203125,4.379313151041666,4.451639811197916,20,30,25,30,202,9,9,9.461932990169663,"[0.054931640625, 0.054931640625, 0.0579833984375, 0.059814453125, 0.059814453125, 0.059814453125, 0.06072998046875, 0.05584716796875, 0.05584716796875, 0.05950927734375, 0.0579833984375, 0.05889892578125, 0.05889892578125, 0.06591796875, 0.07843017578125, 0.08636474609375, 0.0872802734375, 0.0872802734375, 0.08636474609375, 0.08331298828125, 0.076904296875, 0.076904296875, 0.0738525390625, 0.06744384765625, 0.0665283203125, 0.0665283203125, 0.06591796875, 0.06622314453125, 0.07659912109375, 0.0946044921875, 0.0946044921875, 0.09857177734375, 0.09918212890625, 0.101318359375, 0.101318359375, 0.107421875, 0.11627197265625, 0.1300048828125, 0.1300048828125, 0.17791748046875, 0.17791748046875, 0.21484375, 0.242919921875, 0.25299072265625, 0.25299072265625, 0.25665283203125, 0.25848388671875, 0.25726318359375, 0.25726318359375, 0.2691650390625, 0.28717041015625, 0.30853271484375, 0.3277587890625, 0.3277587890625, 0.35736083984375, 0.40679931640625, 0.45074462890625, 0.45074462890625, 0.54168701171875, 0.75103759765625, 0.98297119140625, 0.98297119140625, 1.2591552734375, 1.47491455078125, 1.63177490234375, 1.865234375, 1.865234375, 2.05902099609375, 2.18048095703125, 2.2869873046875, 2.2869873046875, 2.4139404296875, 2.4945068359375, 2.63916015625, 2.63916015625, 2.7166748046875, 2.8021240234375, 2.9150390625, 2.96783447265625, 2.96783447265625, 3.04840087890625, 3.10272216796875, 3.1524658203125, 3.1524658203125, 3.1817626953125, 3.179931640625, 3.182373046875, 3.23974609375, 3.23974609375, 3.27911376953125, 3.30718994140625, 3.3587646484375, 3.44085693359375, 3.44085693359375, 3.504638671875, 3.51104736328125, 3.55072021484375, 3.59344482421875, 3.59344482421875, 3.65020751953125, 3.71673583984375, 3.72802734375, 3.72802734375, 3.7353515625, 3.7738037109375, 3.822021484375, 3.87420654296875, 3.87420654296875, 3.91143798828125, 3.9434814453125, 3.9434814453125, 3.95416259765625, 3.95416259765625, 3.958740234375, 3.958740234375, 3.958740234375, 3.958740234375, 3.97430419921875, 3.97430419921875, 3.9874267578125, 3.9874267578125, 3.9947509765625, 3.9947509765625, 3.9947509765625, 3.9947509765625, 4.0289306640625, 4.0289306640625, 4.0386962890625, 4.0386962890625, 4.00543212890625, 4.00543212890625, 3.97216796875, 3.97216796875, 3.97216796875, 3.97216796875, 3.95477294921875, 3.95477294921875, 3.95233154296875, 3.95233154296875, 3.96240234375, 3.96240234375, 3.96240234375, 3.96240234375, 3.96026611328125, 3.96026611328125, 3.958740234375, 3.958740234375, 3.963623046875, 3.963623046875, 3.963623046875, 3.963623046875, 3.9520263671875, 3.9520263671875, 3.95782470703125, 3.95782470703125, 3.9605712890625, 3.9605712890625, 3.9605712890625, 3.9605712890625, 3.9691162109375, 3.9691162109375, 3.97308349609375, 3.97308349609375, 3.980712890625, 3.980712890625, 3.980712890625, 3.980712890625, 3.9862060546875, 3.9862060546875, 4.04205322265625, 4.04205322265625, 4.07989501953125, 4.07989501953125, 4.083251953125, 4.083251953125, 4.083251953125, 4.083251953125, 4.10888671875, 4.10888671875, 4.12506103515625, 4.12506103515625, 4.1363525390625, 4.1363525390625, 4.13787841796875, 4.13787841796875, 4.13787841796875, 4.13787841796875, 4.16046142578125, 4.16046142578125, 4.176025390625, 4.176025390625, 4.18914794921875, 4.18914794921875, 4.20867919921875, 4.20867919921875, 4.20867919921875, 4.20867919921875, 4.23248291015625, 4.23248291015625, 4.2132568359375, 4.2132568359375, 4.2120361328125, 4.2120361328125, 4.2120361328125, 4.2120361328125, 4.19525146484375, 4.19525146484375, 4.1949462890625, 4.1949462890625, 4.19677734375, 4.19677734375, 4.2120361328125, 4.2120361328125, 4.2120361328125, 4.2120361328125, 4.18121337890625, 4.18121337890625, 4.171142578125, 4.171142578125, 4.15313720703125, 4.15313720703125, 4.13970947265625, 4.13970947265625, 4.13970947265625, 4.13970947265625, 4.139404296875, 4.139404296875, 4.14581298828125, 4.14581298828125, 4.1436767578125, 4.1436767578125, 4.1436767578125, 4.1436767578125]",0.3316022521638676,3.1402175747267265,accepted,5.477486900053918,2.8225118000991642
pgACC-TUS-staircase,,1,2024-02-13_11h53.12.763,None,03,,,-0.07232666015625,4.859837123325893,4.543660481770833,4.2149658203125,4.379313151041666,4.451639811197916,21,25,20,0,202,9,8,0,"[]",0.3316022521638676,-1.8597824252732735,rejected,1.647962500108406,0
pgACC-TUS-staircase,,1,2024-02-13_11h53.12.763,None,03,,,-0.07232666015625,4.859837123325893,4.543660481770833,4.2149658203125,4.379313151041666,4.451639811197916,22,20,12,20,222,8,7,8.592951517291361,"[0.05889892578125, 0.05828857421875, 0.05828857421875, 0.05889892578125, 0.06011962890625, 0.06011962890625, 0.0592041015625, 0.057373046875, 0.0579833984375, 0.0579833984375, 0.06072998046875, 0.06011962890625, 0.064697265625, 0.064697265625, 0.08087158203125, 0.0909423828125, 0.09368896484375, 0.0946044921875, 0.0946044921875, 0.0970458984375, 0.1031494140625, 0.108642578125, 0.108642578125, 0.11077880859375, 0.1123046875, 0.1171875, 0.11962890625, 0.11962890625, 0.1239013671875, 0.13580322265625, 0.1409912109375, 0.14739990234375, 0.14739990234375, 0.15777587890625, 0.17364501953125, 0.18218994140625, 0.18218994140625, 0.19744873046875, 0.20660400390625, 0.21484375, 0.21484375, 0.22369384765625, 0.2374267578125, 0.24993896484375, 0.24993896484375, 0.26580810546875, 0.2764892578125, 0.296630859375, 0.3289794921875, 0.3289794921875, 0.3436279296875, 0.38665771484375, 0.52703857421875, 0.52703857421875, 0.72540283203125, 0.95916748046875, 1.22772216796875, 1.405029296875, 1.405029296875, 1.55914306640625, 1.7059326171875, 1.8475341796875, 1.8475341796875, 2.01629638671875, 2.16217041015625, 2.26715087890625, 2.38128662109375, 2.38128662109375, 2.4652099609375, 2.56622314453125, 2.6556396484375, 2.6556396484375, 2.70477294921875, 2.7532958984375, 2.84423828125, 2.84423828125, 2.87841796875, 2.91015625, 2.92877197265625, 2.94921875, 2.94921875, 2.9754638671875, 3.01025390625, 3.01727294921875, 3.01727294921875, 3.03863525390625, 3.13812255859375, 3.1976318359375, 3.1976318359375, 3.18023681640625, 3.1768798828125, 3.22540283203125, 3.29864501953125, 3.29864501953125, 3.32916259765625, 3.36517333984375, 3.4466552734375, 3.4466552734375, 3.519287109375, 3.519287109375, 3.53179931640625, 3.53179931640625, 3.546142578125, 3.546142578125, 3.67828369140625, 3.67828369140625, 3.67828369140625, 3.67828369140625, 3.7213134765625, 3.7213134765625, 3.71337890625, 3.71337890625, 3.7274169921875, 3.7274169921875, 3.7274169921875, 3.7274169921875, 3.73992919921875, 3.73992919921875, 3.74359130859375, 3.74359130859375, 3.7420654296875, 3.7420654296875, 3.77197265625, 3.77197265625, 3.77197265625, 3.77197265625, 3.7872314453125, 3.7872314453125, 3.79852294921875, 3.79852294921875, 3.80706787109375, 3.80706787109375, 3.80706787109375, 3.80706787109375, 3.8043212890625, 3.8043212890625, 3.79913330078125, 3.79913330078125, 3.76922607421875, 3.76922607421875, 3.76922607421875, 3.76922607421875, 3.72283935546875, 3.72283935546875, 3.64471435546875, 3.64471435546875, 3.5284423828125, 3.5284423828125, 3.5284423828125, 3.5284423828125, 3.52783203125, 3.52783203125, 3.51043701171875, 3.51043701171875, 3.48358154296875, 3.46405029296875, 3.46405029296875, 3.47869873046875, 3.45550537109375, 3.42864990234375, 3.42864990234375, 3.4454345703125, 3.4716796875, 3.4893798828125, 3.4893798828125, 3.50982666015625, 3.50982666015625, 3.53363037109375, 3.53363037109375, 3.53179931640625, 3.53179931640625, 3.541259765625, 3.541259765625, 3.541259765625, 3.541259765625, 3.55804443359375, 3.55804443359375, 3.54095458984375, 3.54095458984375, 3.57208251953125, 3.57208251953125, 3.57208251953125, 3.57208251953125, 3.61968994140625, 3.61968994140625, 3.63861083984375, 3.63861083984375, 3.6590576171875, 3.6590576171875, 3.6590576171875, 3.6590576171875, 3.69903564453125, 3.69903564453125, 3.71917724609375, 3.71917724609375, 3.729248046875, 3.729248046875, 3.7652587890625, 3.7652587890625, 3.7652587890625, 3.7652587890625, 3.7896728515625, 3.7896728515625, 3.809814453125, 3.809814453125, 3.82904052734375, 3.82904052734375, 3.82904052734375, 3.82904052734375, 3.85467529296875, 3.85467529296875, 3.86810302734375, 3.86810302734375, 3.88763427734375, 3.88763427734375, 3.88763427734375, 3.88763427734375, 3.8885498046875, 3.8885498046875, 3.86871337890625, 3.86871337890625, 3.848876953125, 3.848876953125, 3.848876953125, 3.848876953125, 3.83453369140625, 3.83453369140625, 3.84918212890625, 3.84918212890625, 3.86505126953125, 3.86505126953125, 3.86505126953125, 3.86505126953125, 3.88824462890625, 3.88824462890625, 3.8726806640625, 3.8726806640625, 3.8433837890625, 3.8433837890625, 3.83575439453125, 3.83575439453125, 3.83575439453125, 3.83575439453125, 3.8275146484375, 3.8275146484375, 3.81683349609375, 3.81683349609375, 3.81317138671875, 3.81317138671875, 3.81317138671875, 3.81317138671875, 3.81011962890625, 3.81011962890625, 3.81561279296875, 3.81561279296875, 3.81591796875, 3.81591796875, 3.81591796875, 3.81591796875, 3.81317138671875, 3.81317138671875, 3.79730224609375, 3.79730224609375, 3.7969970703125, 3.7969970703125, 3.7994384765625, 3.7994384765625, 3.7994384765625, 3.7994384765625, 3.8018798828125, 3.8018798828125, 3.80706787109375, 3.80706787109375, 3.8031005859375, 3.8031005859375, 3.8031005859375, 3.8031005859375, 3.77899169921875, 3.77899169921875, 3.77960205078125, 3.77960205078125, 3.785400390625, 3.785400390625, 3.785400390625, 3.785400390625, 3.77166748046875, 3.77166748046875, 3.76312255859375, 3.76312255859375]",0.2850021320718967,-1.2225441384875246,accepted,3.262283999938518,3.2941378001123667
pgACC-TUS-staircase,,1,2024-02-13_11h53.12.763,None,03,,,-0.07232666015625,4.859837123325893,4.543660481770833,4.2149658203125,4.379313151041666,4.451639811197916,23,12,26,0,222,7,10,0,"[]",0.2850021320718967,-1.9651044715229364,rejected,2.97833209997043,0
pgACC-TUS-staircase,,1,2024-02-13_11h53.12.763,None,03,,,-0.07232666015625,4.859837123325893,4.543660481770833,4.2149658203125,4.379313151041666,4.451639811197916,24,26,21,0,222,10,8,0,"[]",0.2850021320718967,-2.5002132071896668,rejected,2.0802763998508453,0
pgACC-TUS-staircase,,1,2024-02-13_11h53.12.763,None,03,,,-0.07232666015625,4.859837123325893,4.543660481770833,4.2149658203125,4.379313151041666,4.451639811197916,25,21,12,0,222,8,6,0,"[]",0.33001737634695866,2.759863547398613,rejected,3.883082899963483,0
pgACC-TUS-staircase,,1,2024-02-13_11h53.12.763,None,03,,,-0.07232666015625,4.859837123325893,4.543660481770833,4.2149658203125,4.379313151041666,4.451639811197916,26,12,5,12,234,6,4,6.9755449426718465,"[0.05035400390625, 0.05035400390625, 0.0506591796875, 0.0494384765625, 0.050048828125, 0.050048828125, 0.050048828125, 0.050048828125, 0.050048828125, 0.04974365234375, 0.05035400390625, 0.05035400390625, 0.0506591796875, 0.0506591796875, 0.050048828125, 0.050048828125, 0.0506591796875, 0.05035400390625, 0.0494384765625, 0.04974365234375, 0.04974365234375, 0.04974365234375, 0.0494384765625, 0.0494384765625, 0.0494384765625, 0.04974365234375, 0.0494384765625, 0.05035400390625, 0.05035400390625, 0.05035400390625, 0.05035400390625, 0.05157470703125, 0.0543212890625, 0.0543212890625, 0.06500244140625, 0.07049560546875, 0.07049560546875, 0.079345703125, 0.09246826171875, 0.10345458984375, 0.10345458984375, 0.1275634765625, 0.1763916015625, 0.25665283203125, 0.35247802734375, 0.35247802734375, 0.5047607421875, 0.62286376953125, 0.728759765625, 0.728759765625, 0.92620849609375, 1.09527587890625, 1.21978759765625, 1.21978759765625, 1.2994384765625, 1.36138916015625, 1.49200439453125, 1.49200439453125, 1.59759521484375, 1.6351318359375, 1.7401123046875, 1.83837890625, 1.83837890625, 1.9390869140625, 1.99249267578125, 2.04803466796875, 2.16278076171875, 2.16278076171875, 2.24334716796875, 2.26776123046875, 2.30926513671875, 2.30926513671875, 2.3358154296875, 2.37640380859375, 2.41851806640625, 2.4237060546875, 2.4237060546875, 2.45574951171875, 2.51007080078125, 2.52838134765625, 2.52838134765625, 2.525634765625, 2.5518798828125, 2.5860595703125, 2.61383056640625, 2.61383056640625, 2.61383056640625, 2.63702392578125, 2.63702392578125, 2.66021728515625, 2.66021728515625, 2.66021728515625, 2.66021728515625, 2.6800537109375, 2.6800537109375, 2.689208984375, 2.689208984375, 2.71514892578125, 2.71514892578125, 2.71514892578125, 2.71514892578125, 2.74078369140625, 2.74078369140625, 2.79388427734375, 2.79388427734375, 2.83233642578125, 2.83233642578125, 2.86865234375, 2.86865234375, 2.86865234375, 2.86865234375, 2.89520263671875, 2.89520263671875, 2.9058837890625, 2.9058837890625, 2.9156494140625, 2.9156494140625, 2.9156494140625, 2.9156494140625, 2.93792724609375, 2.93792724609375, 2.93365478515625, 2.93365478515625, 2.9193115234375, 2.9193115234375, 2.91534423828125, 2.91534423828125, 2.91534423828125, 2.91534423828125, 2.91290283203125, 2.91290283203125, 2.9132080078125, 2.9132080078125, 2.901611328125, 2.901611328125, 2.901611328125, 2.901611328125, 2.8497314453125, 2.8497314453125, 2.7789306640625, 2.7789306640625, 2.75665283203125, 2.75665283203125, 2.75665283203125, 2.75665283203125, 2.7593994140625, 2.7593994140625, 2.75665283203125, 2.75665283203125, 2.73529052734375, 2.73529052734375, 2.73529052734375, 2.73529052734375, 2.73529052734375, 2.73529052734375, 2.75787353515625, 2.75787353515625, 2.78656005859375, 2.78656005859375, 2.83233642578125, 2.83233642578125, 2.83233642578125, 2.83233642578125, 2.908935546875, 2.908935546875, 2.92572021484375, 2.92572021484375, 2.87689208984375, 2.87689208984375, 2.85919189453125, 2.85919189453125, 2.85919189453125, 2.85919189453125, 2.89154052734375, 2.89154052734375, 2.89306640625, 2.89306640625, 2.882080078125, 2.882080078125, 2.882080078125, 2.882080078125, 2.8839111328125, 2.8839111328125, 2.90252685546875, 2.90252685546875, 2.90374755859375, 2.90374755859375, 2.90374755859375, 2.90374755859375, 2.92205810546875, 2.92205810546875, 2.93243408203125, 2.93243408203125, 2.9266357421875, 2.9266357421875, 2.93212890625, 2.93212890625, 2.93212890625, 2.93212890625, 2.958984375, 2.958984375, 3.02337646484375, 3.02337646484375, 3.02276611328125, 3.02276611328125, 3.02276611328125, 3.02276611328125, 3.0328369140625, 3.0328369140625, 3.0548095703125, 3.0548095703125]",0.33001737634695866,0.11937445150948811,accepted,1.4408055001404136,2.44692450016737
pgACC-TUS-staircase,,1,2024-02-13_11h53.12.763,None,03,,,-0.07232666015625,4.859837123325893,4.543660481770833,4.2149658203125,4.379313151041666,4.451639811197916,27,5,15,5,239,4,7,4.701001616709718,"[0.068359375, 0.06866455078125, 0.06805419921875, 0.06866455078125, 0.06866455078125, 0.06805419921875, 0.0677490234375, 0.0677490234375, 0.06805419921875, 0.06805419921875, 0.06805419921875, 0.06805419921875, 0.068359375, 0.0677490234375, 0.0677490234375, 0.06744384765625, 0.06683349609375, 0.0665283203125, 0.067138671875, 0.067138671875, 0.06744384765625, 0.0677490234375, 0.06805419921875, 0.06805419921875, 0.0689697265625, 0.0689697265625, 0.0689697265625, 0.06927490234375, 0.06927490234375, 0.06866455078125, 0.0689697265625, 0.0677490234375, 0.0677490234375, 0.07080078125, 0.091552734375, 0.13031005859375, 0.20538330078125, 0.20538330078125, 0.277099609375, 0.37139892578125, 0.53558349609375, 0.70648193359375, 0.70648193359375, 0.81268310546875, 0.92193603515625, 1.10015869140625, 1.10015869140625, 1.20452880859375, 1.29058837890625, 1.39404296875, 1.39404296875, 1.6070556640625, 1.70745849609375, 1.75506591796875, 1.75506591796875, 1.827392578125, 1.827392578125, 1.827392578125, 1.827392578125, 1.95526123046875, 1.95526123046875, 1.98394775390625, 1.98394775390625, 1.98028564453125, 1.98028564453125, 1.99371337890625, 1.99371337890625, 1.99371337890625, 1.99371337890625, 2.021484375, 2.021484375, 2.04071044921875, 2.04071044921875, 2.0458984375, 2.0458984375, 2.047119140625, 2.047119140625, 2.047119140625, 2.047119140625, 2.0196533203125, 2.0196533203125, 1.97540283203125, 1.97540283203125, 1.94183349609375, 1.94183349609375, 1.92901611328125, 1.92901611328125, 1.92901611328125, 1.92901611328125, 1.93450927734375, 1.93450927734375, 1.92626953125, 1.92626953125, 1.88262939453125, 1.88262939453125, 1.87042236328125, 1.87042236328125, 1.87042236328125, 1.87042236328125, 1.871337890625, 1.871337890625, 1.87744140625, 1.87744140625, 1.904296875, 1.904296875, 1.93939208984375, 1.93939208984375, 1.93939208984375, 1.93939208984375, 1.98699951171875, 1.98699951171875, 2.02392578125, 2.02392578125, 2.0391845703125, 2.0391845703125, 2.0391845703125, 2.0391845703125, 2.0556640625, 2.0556640625, 2.06695556640625, 2.06695556640625, 2.07550048828125, 2.07550048828125, 2.07977294921875, 2.07977294921875, 2.07977294921875, 2.07977294921875, 2.091064453125, 2.091064453125, 2.13287353515625, 2.13287353515625, 2.13226318359375, 2.13226318359375, 2.1173095703125, 2.1173095703125, 2.1173095703125, 2.1173095703125, 2.09259033203125, 2.09259033203125, 2.08282470703125, 2.08282470703125, 2.08282470703125, 2.08282470703125, 2.07672119140625, 2.07672119140625, 2.0697021484375, 2.0697021484375, 2.06207275390625, 2.06207275390625, 2.0587158203125, 2.0587158203125, 2.0587158203125, 2.0587158203125, 2.0587158203125, 2.0587158203125, 2.0611572265625, 2.0611572265625, 2.0599365234375, 2.0599365234375, 2.05322265625, 2.05322265625, 2.0526123046875, 2.0526123046875, 2.0526123046875, 2.0526123046875, 2.05474853515625, 2.05474853515625, 2.0562744140625, 2.0562744140625, 2.054443359375, 2.054443359375, 2.054443359375, 2.054443359375, 2.0587158203125, 2.0587158203125]",0.28591526077767776,-0.2802780215513385,accepted,3.32171000004746,1.8716536001302302
pgACC-TUS-staircase,,1,2024-02-13_11h53.12.763,None,03,,,-0.07232666015625,4.859837123325893,4.543660481770833,4.2149658203125,4.379313151041666,4.451639811197916,28,15,24,0,239,7,9,0,"[]",0.3295962622106721,0.9901522218937906,rejected,1.3634645000565797,0
pgACC-TUS-staircase,,1,2024-02-13_11h53.12.763,None,03,,,-0.07232666015625,4.859837123325893,4.543660481770833,4.2149658203125,4.379313151041666,4.451639811197916,29,24,5,0,239,9,4,0,"[]",0.3295962622106721,-2.69729723906444,rejected,1.4962985999882221,0
pgACC-TUS-staircase,,1,2024-02-13_11h53.12.763,None,03,,,-0.07232666015625,4.859837123325893,4.543660481770833,4.2149658203125,4.379313151041666,4.451639811197916,30,5,21,5,244,4,9,4.2145949863415915,"[0.0543212890625, 0.05401611328125, 0.05401611328125, 0.0531005859375, 0.0543212890625, 0.0543212890625, 0.05401611328125, 0.0531005859375, 0.0531005859375, 0.0537109375, 0.05401611328125, 0.0537109375, 0.05279541015625, 0.05279541015625, 0.0537109375, 0.0537109375, 0.0537109375, 0.05462646484375, 0.05462646484375, 0.054931640625, 0.05462646484375, 0.05401611328125, 0.05401611328125, 0.05340576171875, 0.05340576171875, 0.0531005859375, 0.0531005859375, 0.0531005859375, 0.05340576171875, 0.0531005859375, 0.052490234375, 0.052490234375, 0.05401611328125, 0.0537109375, 0.05340576171875, 0.05340576171875, 0.05401611328125, 0.0543212890625, 0.0537109375, 0.05401611328125, 0.05401611328125, 0.05401611328125, 0.0537109375, 0.0531005859375, 0.05401611328125, 0.05401611328125, 0.06072998046875, 0.07415771484375, 0.08697509765625, 0.09429931640625, 0.09429931640625, 0.0982666015625, 0.10345458984375, 0.11871337890625, 0.11871337890625, 0.14251708984375, 0.203857421875, 0.27984619140625, 0.45806884765625, 0.45806884765625, 0.5999755859375, 0.75775146484375, 0.95947265625, 0.95947265625, 1.1077880859375, 1.17462158203125, 1.27471923828125, 1.33026123046875, 1.33026123046875, 1.40533447265625, 1.5338134765625, 1.60552978515625, 1.60552978515625, 1.6546630859375, 1.79412841796875, 1.79412841796875, 1.87896728515625, 1.87896728515625, 1.949462890625, 1.949462890625, 1.949462890625, 1.949462890625, 1.981201171875, 1.981201171875, 2.039794921875, 2.039794921875, 2.08892822265625, 2.08892822265625, 2.08892822265625, 2.08892822265625, 2.16583251953125, 2.16583251953125, 2.23846435546875, 2.23846435546875, 2.2869873046875, 2.2869873046875, 2.31719970703125, 2.31719970703125, 2.31719970703125, 2.31719970703125, 2.3236083984375, 2.3236083984375, 2.31048583984375, 2.31048583984375, 2.314453125, 2.314453125, 2.3370361328125, 2.3370361328125, 2.33489990234375, 2.33489990234375, 2.33489990234375, 2.33489990234375, 2.32513427734375, 2.32513427734375, 2.31719970703125, 2.31719970703125, 2.31536865234375, 2.31536865234375, 2.31536865234375, 2.31536865234375, 2.3040771484375, 2.3040771484375, 2.30499267578125, 2.30499267578125, 2.28271484375, 2.28271484375, 2.283935546875, 2.283935546875, 2.283935546875, 2.283935546875, 2.2833251953125, 2.2833251953125, 2.24822998046875, 2.24822998046875, 2.21923828125, 2.21923828125, 2.21923828125, 2.21923828125, 2.19696044921875, 2.19696044921875, 2.17193603515625, 2.17193603515625, 2.139892578125, 2.139892578125, 2.139892578125, 2.139892578125, 2.08648681640625, 2.08648681640625, 2.06787109375, 2.06787109375, 2.0550537109375, 2.0550537109375, 2.02728271484375, 2.02728271484375, 2.02728271484375, 2.02728271484375, 1.9744873046875, 1.9744873046875, 1.9476318359375, 1.9476318359375, 1.93511962890625, 1.93511962890625, 1.93511962890625, 1.93511962890625, 1.92840576171875, 1.92840576171875, 1.94427490234375, 1.94427490234375, 1.9769287109375, 1.9769287109375, 1.9854736328125, 1.9854736328125, 1.9854736328125, 1.9854736328125, 1.97967529296875, 1.97967529296875, 1.97662353515625, 1.97662353515625, 1.98333740234375, 1.98333740234375, 1.98333740234375, 1.98333740234375, 1.983642578125, 1.983642578125, 1.949462890625, 1.949462890625, 1.9439697265625, 1.9439697265625, 1.92108154296875, 1.92108154296875, 1.92108154296875, 1.92108154296875, 1.8719482421875, 1.8719482421875, 1.85546875, 1.85546875, 1.845703125, 1.845703125]",0.28669631208527097,-0.2735401953707539,accepted,1.4404684000182897,2.23449350008741
pgACC-TUS-staircase,,1,2024-02-13_11h53.12.763,None,03,,,-0.07232666015625,4.859837123325893,4.543660481770833,4.2149658203125,4.379313151041666,4.451639811197916,31,21,25,0,244,9,9,0,"[]",0.28669631208527097,-2.222401278906947,rejected,1.4120898998808116,0
pgACC-TUS-staircase,,1,2024-02-13_11h53.12.763,None,03,,,-0.07232666015625,4.859837123325893,4.543660481770833,4.2149658203125,4.379313151041666,4.451639811197916,32,25,5,0,244,9,4,0,"[]",0.3288862741946802,1.777598721093053,rejected,1.4505179000552744,0
pgACC-TUS-staircase,,1,2024-02-13_11h53.12.763,None,03,,,-0.07232666015625,4.859837123325893,4.543660481770833,4.2149658203125,4.379313151041666,4.451639811197916,33,5,21,5,249,4,9,4.652918439782209,"[0.0555419921875, 0.0555419921875, 0.05523681640625, 0.05523681640625, 0.054931640625, 0.05462646484375, 0.05462646484375, 0.0531005859375, 0.05157470703125, 0.05126953125, 0.05126953125, 0.05157470703125, 0.0506591796875, 0.05035400390625, 0.04913330078125, 0.04913330078125, 0.0494384765625, 0.0494384765625, 0.04913330078125, 0.04913330078125, 0.048828125, 0.050048828125, 0.05889892578125, 0.05889892578125, 0.08026123046875, 0.10223388671875, 0.1171875, 0.14312744140625, 0.14312744140625, 0.2069091796875, 0.277099609375, 0.38604736328125, 0.38604736328125, 0.55389404296875, 0.74005126953125, 1.0272216796875, 1.22161865234375, 1.22161865234375, 1.3763427734375, 1.558837890625, 1.74957275390625, 1.8505859375, 1.8505859375, 1.8505859375, 1.8505859375, 1.953125, 1.953125, 2.03155517578125, 2.03155517578125, 2.0745849609375, 2.0745849609375, 2.0745849609375, 2.0745849609375, 2.08099365234375, 2.08099365234375, 2.08740234375, 2.08740234375, 2.1124267578125, 2.1124267578125, 2.139892578125, 2.139892578125, 2.139892578125, 2.139892578125, 2.14508056640625, 2.14508056640625, 2.1466064453125, 2.1466064453125, 2.169189453125, 2.169189453125, 2.19024658203125, 2.19024658203125, 2.19024658203125, 2.19024658203125, 2.1624755859375, 2.1624755859375, 2.17987060546875, 2.17987060546875, 2.2149658203125, 2.2149658203125, 2.147216796875, 2.147216796875, 2.147216796875, 2.147216796875, 2.10357666015625, 2.10357666015625, 2.06451416015625, 2.06451416015625, 2.03094482421875, 2.03094482421875, 2.03094482421875, 2.03094482421875, 1.97601318359375, 1.97601318359375, 1.95526123046875, 1.95526123046875, 1.9586181640625, 1.9586181640625, 1.9244384765625, 1.9244384765625, 1.9244384765625, 1.9244384765625, 1.88140869140625, 1.88140869140625, 1.8829345703125, 1.8829345703125, 1.85760498046875, 1.85760498046875, 1.83502197265625, 1.83502197265625, 1.83502197265625, 1.83502197265625, 1.83441162109375, 1.83441162109375, 1.8487548828125, 1.8487548828125, 1.85638427734375, 1.85638427734375, 1.85638427734375, 1.85638427734375, 1.85455322265625, 1.85455322265625, 1.876220703125, 1.876220703125, 1.88568115234375, 1.88568115234375, 1.87744140625, 1.87744140625, 1.87744140625, 1.87744140625, 1.91192626953125, 1.91192626953125, 1.94091796875, 1.94091796875, 1.91253662109375, 1.91253662109375, 1.915283203125, 1.915283203125, 1.915283203125, 1.915283203125, 1.97509765625, 1.97509765625, 1.9921875, 1.9921875, 1.99462890625, 1.99462890625, 1.99462890625, 1.99462890625, 2.0355224609375, 2.0355224609375, 2.04742431640625, 2.04742431640625, 2.04803466796875, 2.04803466796875, 2.05078125, 2.05078125, 2.05078125, 2.05078125, 2.054443359375, 2.054443359375, 2.04864501953125, 2.04864501953125, 2.03765869140625, 2.03765869140625]",0.28702797720333667,-0.2621803871148831,accepted,1.203560700174421,1.6728689998853952
pgACC-TUS-staircase,,1,2024-02-13_11h53.12.763,None,03,,,-0.07232666015625,4.859837123325893,4.543660481770833,4.2149658203125,4.379313151041666,4.451639811197916,34,21,23,0,249,9,9,0,"[]",0.28702797720333667,-2.24926615347027,rejected,1.7714300998486578,0
pgACC-TUS-staircase,,1,2024-02-13_11h53.12.763,None,03,,,-0.07232666015625,4.859837123325893,4.543660481770833,4.2149658203125,4.379313151041666,4.451639811197916,35,23,25,23,272,9,10,9.397822087599652,"[0.07293701171875, 0.0750732421875, 0.07720947265625, 0.07720947265625, 0.07904052734375, 0.0836181640625, 0.08941650390625, 0.08941650390625, 0.0909423828125, 0.0909423828125, 0.0933837890625, 0.09674072265625, 0.0982666015625, 0.0982666015625, 0.10009765625, 0.10040283203125, 0.10467529296875, 0.10467529296875, 0.11138916015625, 0.11962890625, 0.12603759765625, 0.130615234375, 0.130615234375, 0.1361083984375, 0.13641357421875, 0.13824462890625, 0.13824462890625, 0.13763427734375, 0.1373291015625, 0.13763427734375, 0.13671875, 0.13671875, 0.13580322265625, 0.13519287109375, 0.1300048828125, 0.1300048828125, 0.12359619140625, 0.12176513671875, 0.12115478515625, 0.12786865234375, 0.12786865234375, 0.18035888671875, 0.289306640625, 0.51910400390625, 0.51910400390625, 0.7574462890625, 1.11175537109375, 1.28387451171875, 1.456298828125, 1.607666015625, 1.607666015625, 1.77276611328125, 1.98577880859375, 2.08404541015625, 2.08404541015625, 2.2369384765625, 2.3333740234375, 2.44720458984375, 2.57720947265625, 2.57720947265625, 2.66204833984375, 2.69866943359375, 2.75054931640625, 2.84912109375, 2.84912109375, 2.8790283203125, 2.92999267578125, 2.984619140625, 2.984619140625, 3.07830810546875, 3.114013671875, 3.115234375, 3.115234375, 3.19000244140625, 3.2659912109375, 3.26751708984375, 3.297119140625, 3.297119140625, 3.3624267578125, 3.37799072265625, 3.385009765625, 3.385009765625, 3.448486328125, 3.4832763671875, 3.52081298828125, 3.5546875, 3.5546875, 3.5662841796875, 3.60076904296875, 3.6431884765625, 3.67401123046875, 3.67401123046875, 3.68621826171875, 3.71429443359375, 3.75762939453125, 3.75762939453125, 3.8214111328125, 3.84765625, 3.839111328125, 3.82598876953125, 3.82598876953125, 3.8531494140625, 3.83880615234375, 3.84002685546875, 3.84002685546875, 3.8330078125, 3.8360595703125, 3.848876953125, 3.848876953125, 3.83636474609375, 3.82080078125, 3.8543701171875, 3.86871337890625, 3.86871337890625, 3.83758544921875, 3.81500244140625, 3.82965087890625, 3.84002685546875, 3.84002685546875, 3.87115478515625, 3.91143798828125, 3.93829345703125, 3.93829345703125, 3.9605712890625, 3.9605712890625, 3.970947265625, 3.970947265625, 3.9764404296875, 3.9764404296875, 3.97369384765625, 3.97369384765625, 3.97369384765625, 3.97369384765625, 4.04144287109375, 4.04144287109375, 4.022216796875, 4.022216796875, 4.0374755859375, 4.0374755859375, 4.09637451171875, 4.09637451171875, 4.09637451171875, 4.09637451171875, 4.122314453125, 4.122314453125, 4.1400146484375, 4.1400146484375, 4.1497802734375, 4.1497802734375, 4.1497802734375, 4.1497802734375, 4.17144775390625, 4.17144775390625, 4.17694091796875, 4.17694091796875, 4.2132568359375, 4.2132568359375, 4.2132568359375, 4.2132568359375, 4.24468994140625, 4.24468994140625, 4.2425537109375, 4.2425537109375, 4.24346923828125, 4.24346923828125, 4.25323486328125, 4.25323486328125, 4.25323486328125, 4.25323486328125, 4.2523193359375, 4.2523193359375, 4.24713134765625, 4.24713134765625, 4.2572021484375, 4.2572021484375, 4.2572021484375, 4.2572021484375, 4.2620849609375, 4.2620849609375, 4.2535400390625, 4.2535400390625, 4.24835205078125, 4.24835205078125, 4.2572021484375, 4.2572021484375, 4.2572021484375, 4.2572021484375, 4.2620849609375, 4.2620849609375, 4.25567626953125, 4.25567626953125, 4.25872802734375, 4.25872802734375, 4.2596435546875, 4.2596435546875, 4.2596435546875, 4.2596435546875, 4.22607421875, 4.22607421875, 4.20135498046875, 4.20135498046875, 4.234619140625, 4.234619140625, 4.23004150390625, 4.23004150390625, 4.23004150390625, 4.23004150390625, 4.1943359375, 4.1943359375, 4.19189453125, 4.19189453125, 4.1790771484375, 4.1790771484375, 4.1790771484375, 4.1790771484375, 4.15740966796875, 4.15740966796875, 4.15740966796875, 4.15740966796875, 4.15771484375, 4.15771484375, 4.156494140625, 4.156494140625, 4.156494140625, 4.156494140625, 4.1357421875, 4.1357421875, 4.122314453125, 4.122314453125, 4.0887451171875, 4.0887451171875, 4.10064697265625, 4.10064697265625, 4.10064697265625, 4.10064697265625, 4.11041259765625, 4.11041259765625, 4.122314453125, 4.122314453125, 4.12872314453125, 4.12872314453125, 4.12872314453125, 4.12872314453125, 4.1156005859375, 4.1156005859375]",0.24579184054196263,-0.2492661534702698,accepted,2.7119909001048654,3.0376821998506784
pgACC-TUS-staircase,,1,2024-02-13_11h53.12.763,None,03,,,-0.07232666015625,4.859837123325893,4.543660481770833,4.2149658203125,4.379313151041666,4.451639811197916,36,25,14,0,272,10,7,0,"[]",0.28673560360337225,0.4208159458037386,rejected,1.410813800059259,0
pgACC-TUS-staircase,,1,2024-02-13_11h53.12.763,None,03,,,-0.07232666015625,4.859837123325893,4.543660481770833,4.2149658203125,4.379313151041666,4.451639811197916,37,14,6,14,286,7,5,7.185299091297644,"[0.0787353515625, 0.07904052734375, 0.081787109375, 0.081787109375, 0.0823974609375, 0.08087158203125, 0.08087158203125, 0.08148193359375, 0.08026123046875, 0.07965087890625, 0.08026123046875, 0.08026123046875, 0.08026123046875, 0.07965087890625, 0.08026123046875, 0.08026123046875, 0.079345703125, 0.07965087890625, 0.07965087890625, 0.07965087890625, 0.08026123046875, 0.0799560546875, 0.0799560546875, 0.0799560546875, 0.0823974609375, 0.09307861328125, 0.1007080078125, 0.11138916015625, 0.11138916015625, 0.12908935546875, 0.1470947265625, 0.2130126953125, 0.2130126953125, 0.28350830078125, 0.43792724609375, 0.66253662109375, 0.90362548828125, 0.90362548828125, 1.1065673828125, 1.24603271484375, 1.49017333984375, 1.49017333984375, 1.62506103515625, 1.8048095703125, 1.954345703125, 2.07489013671875, 2.07489013671875, 2.2039794921875, 2.29339599609375, 2.4383544921875, 2.530517578125, 2.530517578125, 2.63763427734375, 2.68585205078125, 2.767333984375, 2.767333984375, 2.88543701171875, 2.92205810546875, 2.93365478515625, 3.006591796875, 3.006591796875, 3.0706787109375, 3.0706787109375, 3.04412841796875, 3.03253173828125, 3.03253173828125, 3.08868408203125, 3.08868408203125, 3.09295654296875, 3.09295654296875, 3.067626953125, 3.067626953125, 3.0718994140625, 3.0718994140625, 3.0718994140625, 3.0718994140625, 2.99896240234375, 2.99896240234375, 3.01422119140625, 3.02978515625, 3.0670166015625, 3.0670166015625, 3.0670166015625, 3.0670166015625, 3.07464599609375, 3.07464599609375, 3.06549072265625, 3.06549072265625, 3.08502197265625, 3.08502197265625, 3.143310546875, 3.143310546875, 3.162841796875, 3.162841796875, 3.162841796875, 3.162841796875, 3.16070556640625, 3.16070556640625, 3.15887451171875, 3.15887451171875, 3.14697265625, 3.14697265625, 3.16925048828125, 3.16925048828125, 3.16925048828125, 3.16925048828125, 3.228759765625, 3.228759765625, 3.2647705078125, 3.2647705078125, 3.26080322265625, 3.26080322265625, 3.26080322265625, 3.26080322265625, 3.2568359375, 3.2568359375, 3.267822265625, 3.267822265625, 3.2769775390625, 3.2769775390625, 3.28765869140625, 3.28765869140625, 3.28765869140625, 3.28765869140625, 3.3026123046875, 3.3026123046875, 3.3233642578125, 3.3233642578125, 3.336181640625, 3.336181640625, 3.336181640625, 3.336181640625, 3.35601806640625, 3.35601806640625, 3.36334228515625, 3.36334228515625, 3.37554931640625, 3.37554931640625, 3.37554931640625, 3.37554931640625, 3.38104248046875, 3.38104248046875, 3.3758544921875, 3.3758544921875, 3.36151123046875, 3.36151123046875, 3.36151123046875, 3.36151123046875, 3.33770751953125, 3.33770751953125, 3.30810546875, 3.30810546875, 3.2879638671875, 3.2879638671875, 3.30352783203125, 3.30352783203125, 3.30352783203125, 3.30352783203125, 3.3074951171875, 3.3074951171875, 3.289794921875, 3.289794921875, 3.3013916015625, 3.3013916015625, 3.30047607421875, 3.30047607421875, 3.30047607421875, 3.30047607421875, 3.29132080078125, 3.29132080078125, 3.27239990234375, 3.27239990234375, 3.26995849609375, 3.26995849609375, 3.26995849609375, 3.26995849609375, 3.265380859375, 3.265380859375, 3.228759765625, 3.228759765625, 3.20343017578125, 3.20343017578125, 3.21685791015625, 3.21685791015625, 3.21685791015625, 3.21685791015625, 3.21502685546875, 3.21502685546875, 3.18267822265625, 3.18267822265625, 3.1707763671875, 3.1707763671875, 3.19488525390625, 3.19488525390625, 3.19488525390625, 3.19488525390625, 3.184814453125, 3.184814453125, 3.165283203125, 3.165283203125, 3.1585693359375, 3.1585693359375, 3.15704345703125, 3.15704345703125, 3.15887451171875, 3.15887451171875, 3.15887451171875, 3.15887451171875, 3.14666748046875, 3.14666748046875]",0.2460728490010997,-0.05004457656523975,accepted,1.5559177999384701,2.3058896001894027
pgACC-TUS-staircase,,1,2024-02-13_11h53.12.763,None,03,,,-0.07232666015625,4.859837123325893,4.543660481770833,4.2149658203125,4.379313151041666,4.451639811197916,38,6,24,6,292,5,10,6.130256629438984,"[0.0726318359375, 0.0732421875, 0.0732421875, 0.07293701171875, 0.07354736328125, 0.07354736328125, 0.0732421875, 0.0732421875, 0.0738525390625, 0.0738525390625, 0.07232666015625, 0.0726318359375, 0.0726318359375, 0.07232666015625, 0.07171630859375, 0.07171630859375, 0.07171630859375, 0.0714111328125, 0.07232666015625, 0.07232666015625, 0.07232666015625, 0.0726318359375, 0.07354736328125, 0.10101318359375, 0.10101318359375, 0.145263671875, 0.24749755859375, 0.3955078125, 0.5718994140625, 0.5718994140625, 0.74310302734375, 0.9710693359375, 1.18408203125, 1.18408203125, 1.33880615234375, 1.50390625, 1.66168212890625, 1.85394287109375, 1.85394287109375, 1.99127197265625, 2.0538330078125, 2.1826171875, 2.36328125, 2.36328125, 2.36328125, 2.36328125, 2.46612548828125, 2.46612548828125, 2.5244140625, 2.5244140625, 2.57598876953125, 2.57598876953125, 2.6824951171875, 2.6824951171875, 2.703857421875, 2.703857421875, 2.703857421875, 2.703857421875, 2.69805908203125, 2.69805908203125, 2.69012451171875, 2.69012451171875, 2.685546875, 2.685546875, 2.685546875, 2.685546875, 2.65960693359375, 2.65960693359375, 2.61627197265625, 2.61627197265625, 2.56744384765625, 2.56744384765625, 2.49847412109375, 2.49847412109375, 2.457275390625, 2.457275390625, 2.457275390625, 2.457275390625, 2.35809326171875, 2.35809326171875, 2.333984375, 2.333984375, 2.33551025390625, 2.33551025390625, 2.33551025390625, 2.33551025390625, 2.29095458984375, 2.29095458984375, 2.2943115234375, 2.2943115234375, 2.33642578125, 2.33642578125, 2.33642578125, 2.33642578125, 2.37030029296875, 2.37030029296875, 2.38006591796875, 2.38006591796875, 2.38922119140625, 2.38922119140625, 2.38739013671875, 2.38739013671875, 2.38739013671875, 2.38739013671875, 2.41851806640625, 2.41851806640625, 2.44598388671875, 2.44598388671875, 2.45635986328125, 2.45635986328125, 2.4761962890625, 2.4761962890625, 2.4761962890625, 2.4761962890625, 2.496337890625, 2.496337890625, 2.4993896484375, 2.4993896484375, 2.5067138671875, 2.5067138671875, 2.5067138671875, 2.5067138671875, 2.52410888671875, 2.52410888671875, 2.56256103515625, 2.56256103515625, 2.61749267578125, 2.61749267578125, 2.65960693359375, 2.65960693359375, 2.65960693359375, 2.65960693359375, 2.68218994140625, 2.68218994140625, 2.6995849609375, 2.6995849609375, 2.72003173828125, 2.72003173828125, 2.7288818359375, 2.7288818359375, 2.7288818359375, 2.7288818359375, 2.7130126953125, 2.7130126953125, 2.72430419921875, 2.72430419921875, 2.73529052734375, 2.73529052734375, 2.7093505859375, 2.7093505859375, 2.7093505859375, 2.7093505859375, 2.6898193359375, 2.6898193359375, 2.69500732421875, 2.69500732421875, 2.706298828125, 2.706298828125, 2.698974609375, 2.698974609375, 2.698974609375, 2.698974609375, 2.68463134765625, 2.68463134765625]",0.20568047279144105,-0.15182122502749262,accepted,1.332916900049895,1.6814216999337077
pgACC-TUS-staircase,,1,2024-02-13_11h53.12.763,None,03,,,-0.07232666015625,4.859837123325893,4.543660481770833,4.2149658203125,4.379313151041666,4.451639811197916,39,24,4,0,292,10,4,0,"[]",0.24581243075429915,3.431952720855893,rejected,1.042658600024879,0
pgACC-TUS-staircase,,1,2024-02-13_11h53.12.763,None,03,,,-0.07232666015625,4.859837123325893,4.543660481770833,4.2149658203125,4.379313151041666,4.451639811197916,40,4,15,4,296,4,8,4.698214186163195,"[0.07080078125, 0.07049560546875, 0.07049560546875, 0.07080078125, 0.06805419921875, 0.06805419921875, 0.0677490234375, 0.0677490234375, 0.0677490234375, 0.0677490234375, 0.0677490234375, 0.067138671875, 0.067138671875, 0.068359375, 0.068359375, 0.068359375, 0.068359375, 0.06866455078125, 0.07476806640625, 0.1141357421875, 0.1141357421875, 0.2069091796875, 0.338134765625, 0.53375244140625, 0.53375244140625, 0.70526123046875, 0.9283447265625, 1.10015869140625, 1.23748779296875, 1.23748779296875, 1.42974853515625, 1.4990234375, 1.4990234375, 1.60736083984375, 1.7083740234375, 1.7974853515625, 1.7974853515625, 1.826171875, 1.826171875, 1.826171875, 1.826171875, 1.87255859375, 1.87255859375, 1.95465087890625, 1.95465087890625, 1.983642578125, 1.983642578125, 2.01446533203125, 2.01446533203125, 2.01446533203125, 2.01446533203125, 2.0465087890625, 2.0465087890625, 2.0843505859375, 2.0843505859375, 2.10296630859375, 2.10296630859375, 2.10296630859375, 2.10296630859375, 2.15240478515625, 2.15240478515625, 2.2265625, 2.2265625, 2.26226806640625, 2.26226806640625, 2.25067138671875, 2.25067138671875, 2.25067138671875, 2.25067138671875, 2.23724365234375, 2.23724365234375, 2.21771240234375, 2.21771240234375, 2.2021484375, 2.2021484375, 2.2021484375, 2.2021484375, 2.18780517578125, 2.18780517578125, 2.1661376953125, 2.1661376953125, 2.14263916015625, 2.14263916015625, 2.12005615234375, 2.12005615234375, 2.12005615234375, 2.12005615234375, 2.1221923828125, 2.1221923828125, 2.12799072265625, 2.12799072265625, 2.14080810546875, 2.14080810546875, 2.14080810546875, 2.14080810546875, 2.1795654296875, 2.1795654296875, 2.220458984375, 2.220458984375, 2.24609375, 2.24609375, 2.24609375, 2.24609375, 2.237548828125, 2.237548828125, 2.20947265625, 2.20947265625, 2.18658447265625, 2.18658447265625, 2.18658447265625, 2.18658447265625, 2.1734619140625, 2.1734619140625, 2.1502685546875, 2.1502685546875, 2.137451171875, 2.137451171875, 2.137451171875, 2.137451171875, 2.1240234375, 2.1240234375, 2.0892333984375, 2.0892333984375, 2.08831787109375, 2.08831787109375, 2.08282470703125, 2.08282470703125, 2.08282470703125, 2.08282470703125, 2.069091796875, 2.069091796875, 2.0697021484375, 2.0697021484375, 2.07000732421875, 2.07000732421875, 2.07000732421875, 2.07000732421875, 2.0556640625, 2.0556640625, 2.04742431640625, 2.04742431640625, 2.04559326171875, 2.04559326171875, 2.04345703125, 2.04345703125, 2.04345703125, 2.04345703125, 2.0416259765625, 2.0416259765625, 2.04071044921875, 2.04071044921875, 2.04559326171875, 2.04559326171875, 2.04559326171875, 2.04559326171875, 2.0574951171875, 2.0574951171875]",0.24581243075429915,0.06700110793121361,accepted,1.4121495999861509,1.5737704001367092
pgACC-TUS-staircase,,1,2024-02-13_11h53.12.763,None,03,,,-0.07232666015625,4.859837123325893,4.543660481770833,4.2149658203125,4.379313151041666,4.451639811197916,41,15,5,15,311,8,4,8.391559660305132,"[0.074462890625, 0.074462890625, 0.0726318359375, 0.0726318359375, 0.07080078125, 0.07080078125, 0.06988525390625, 0.0677490234375, 0.06439208984375, 0.06439208984375, 0.059814453125, 0.05462646484375, 0.050048828125, 0.050048828125, 0.03997802734375, 0.0323486328125, 0.028076171875, 0.028076171875, 0.02410888671875, 0.02197265625, 0.0213623046875, 0.0213623046875, 0.0189208984375, 0.01556396484375, 0.0146484375, 0.01312255859375, 0.01312255859375, 0.0128173828125, 0.013427734375, 0.0140380859375, 0.01556396484375, 0.01556396484375, 0.01861572265625, 0.02593994140625, 0.0384521484375, 0.06561279296875, 0.06561279296875, 0.089111328125, 0.107421875, 0.1275634765625, 0.1275634765625, 0.16937255859375, 0.2294921875, 0.2777099609375, 0.40802001953125, 0.40802001953125, 0.61370849609375, 0.90484619140625, 1.1968994140625, 1.34490966796875, 1.34490966796875, 1.5277099609375, 1.6680908203125, 1.8603515625, 2.06146240234375, 2.06146240234375, 2.24884033203125, 2.3748779296875, 2.486572265625, 2.56500244140625, 2.56500244140625, 2.62969970703125, 2.6849365234375, 2.725830078125, 2.725830078125, 2.80364990234375, 2.8668212890625, 2.94708251953125, 2.94708251953125, 3.07403564453125, 3.1634521484375, 3.16802978515625, 3.17535400390625, 3.17535400390625, 3.23028564453125, 3.28582763671875, 3.25042724609375, 3.25042724609375, 3.2220458984375, 3.23028564453125, 3.2086181640625, 3.2086181640625, 3.16192626953125, 3.13201904296875, 3.17047119140625, 3.21136474609375, 3.21136474609375, 3.194580078125, 3.2208251953125, 3.24951171875, 3.24951171875, 3.2806396484375, 3.2965087890625, 3.2977294921875, 3.32427978515625, 3.32427978515625, 3.34686279296875, 3.3648681640625, 3.3758544921875, 3.3758544921875, 3.42926025390625, 3.44390869140625, 3.46771240234375, 3.46771240234375, 3.5040283203125, 3.5040283203125, 3.5272216796875, 3.5272216796875, 3.541259765625, 3.541259765625, 3.541259765625, 3.541259765625, 3.5357666015625, 3.5357666015625, 3.5443115234375, 3.5443115234375, 3.5455322265625, 3.5455322265625, 3.61419677734375, 3.61419677734375, 3.61419677734375, 3.61419677734375, 3.70147705078125, 3.70147705078125, 3.7176513671875, 3.7176513671875, 3.69384765625, 3.69384765625, 3.70086669921875, 3.70086669921875, 3.70086669921875, 3.70086669921875, 3.72039794921875, 3.72039794921875, 3.724365234375, 3.724365234375, 3.7310791015625, 3.7310791015625, 3.7310791015625, 3.7310791015625, 3.73291015625, 3.73291015625, 3.7451171875, 3.7451171875, 3.7542724609375, 3.7542724609375, 3.7542724609375, 3.7542724609375, 3.75030517578125, 3.75030517578125, 3.7823486328125, 3.7823486328125, 3.79974365234375, 3.79974365234375, 3.8165283203125, 3.8165283203125, 3.8165283203125, 3.8165283203125, 3.8177490234375, 3.8177490234375, 3.83087158203125, 3.83087158203125, 3.82781982421875, 3.82781982421875, 3.86871337890625, 3.86871337890625, 3.86871337890625, 3.86871337890625, 3.8873291015625, 3.8873291015625, 3.8922119140625, 3.8922119140625, 3.90655517578125, 3.90655517578125, 3.90655517578125, 3.90655517578125, 3.91815185546875, 3.91815185546875, 3.892822265625, 3.892822265625, 3.89495849609375, 3.89495849609375, 3.89495849609375, 3.89495849609375, 3.87939453125, 3.87939453125, 3.8153076171875, 3.8153076171875, 3.79150390625, 3.79150390625, 3.76739501953125, 3.76739501953125, 3.76739501953125, 3.76739501953125, 3.7286376953125, 3.7286376953125, 3.7310791015625, 3.7310791015625, 3.7249755859375, 3.7249755859375, 3.712158203125, 3.712158203125, 3.712158203125, 3.712158203125, 3.71856689453125, 3.71856689453125, 3.71978759765625, 3.71978759765625, 3.685302734375, 3.685302734375, 3.66546630859375, 3.66546630859375, 3.66546630859375, 3.66546630859375, 3.58917236328125, 3.58917236328125, 3.58551025390625, 3.58551025390625, 3.64288330078125, 3.64288330078125, 3.64288330078125, 3.64288330078125, 3.6651611328125, 3.6651611328125, 3.6834716796875, 3.6834716796875, 3.6749267578125, 3.6749267578125]",0.20617382526383232,-0.7319955682751456,accepted,2.3914983000140637,2.7353014999534935
