expName,curec_ID,session_nr,date,end_date,participant,age,gender,gripper_baseline,max_effort_calibration_1,max_effort_calibration_2,max_effort_calibration_3,max_effort,max_effort_baseline_corrected,trial_count,reward_offer,next_reward_offer,reward_earned,total_reward,effort_offer,next_effort_offer,effort_expended,effort_trace,estimated_k,estimated_net_value,participant_response,participant_choice_response_time,participant_effort_response_time
pgACC-TUS-staircase,,1,2024-02-13_15h30.18.174,None,06,,,-0.03265380859375,2.891453334263393,2.8120930989583335,2.89642333984375,2.854258219401042,2.886912027994792,0,18,None,0,0,6,None,None,"[0.35125732421875, 0.49163818359375, 0.73272705078125, 0.95672607421875, 1.31134033203125, 1.492919921875, 1.72332763671875, 1.80511474609375, 2.0062255859375, 2.05047607421875, 2.25616455078125, 2.3712158203125, 2.470703125, 2.60528564453125, 2.62603759765625, 2.66632080078125, 2.73101806640625, 2.80548095703125, 2.88909912109375, 2.8900146484375, 2.8680419921875, 2.8729248046875, 2.891845703125, 2.9083251953125, 2.9052734375, 2.90435791015625, 2.889404296875, 2.85308837890625, 2.7813720703125, 2.79510498046875, 2.80242919921875, 2.72857666015625, 2.73040771484375, 2.6934814453125, 2.662353515625, 2.6708984375, 2.70477294921875, 2.713623046875, 2.70294189453125, 2.68798828125, 2.630615234375, 2.56805419921875, 2.4737548828125, 2.43804931640625, 2.4554443359375, 2.48077392578125, 2.48046875, 2.47222900390625, 2.4774169921875, 0.166015625, 0.20751953125, 0.27374267578125, 1.02996826171875, 1.84661865234375, 2.042236328125, 2.20062255859375, 2.340087890625, 2.47467041015625, 2.60345458984375, 2.65380859375, 2.80303955078125, 2.83538818359375, 2.7978515625, 2.7362060546875, 2.7508544921875, 2.7825927734375, 2.80792236328125, 2.80487060546875, 2.79510498046875, 2.73101806640625, 2.6922607421875, 2.63641357421875, 2.67608642578125, 2.74169921875, 2.7459716796875, 2.71820068359375, 2.50457763671875, 0.1580810546875, 0.17547607421875, 0.18798828125, 0.19622802734375, 0.201416015625, 0.19073486328125, 0.20599365234375, 0.22064208984375, 0.242919921875, 0.29815673828125, 0.90057373046875, 1.82830810546875, 2.26318359375, 2.36175537109375, 2.308349609375, 2.427978515625, 2.53997802734375, 2.69195556640625, 2.79052734375, 2.9046630859375, 2.933349609375, 2.9296875, 2.92388916015625, 2.89886474609375, 2.8436279296875, 2.80181884765625, 2.71881103515625, 2.6806640625, 2.66448974609375, 2.67059326171875, 2.6727294921875, 2.62725830078125, 2.55767822265625, 2.52471923828125, 2.498779296875]",0.5,0.0,None,None,None
pgACC-TUS-staircase,,1,2024-02-13_15h30.18.174,None,06,,,-0.03265380859375,2.891453334263393,2.8120930989583335,2.89642333984375,2.854258219401042,2.886912027994792,1,18,21,18,18,6,6,6.755172229449186,"[0.030517578125, 0.030517578125, 0.03021240234375, 0.030517578125, 0.030517578125, 0.03021240234375, 0.03021240234375, 0.02960205078125, 0.02960205078125, 0.0299072265625, 0.029296875, 0.03021240234375, 0.03021240234375, 0.02960205078125, 0.03021240234375, 0.030517578125, 0.030517578125, 0.0299072265625, 0.03021240234375, 0.03021240234375, 0.030517578125, 0.030517578125, 0.032958984375, 0.0323486328125, 0.03204345703125, 0.03204345703125, 0.0311279296875, 0.0311279296875, 0.0311279296875, 0.0311279296875, 0.0311279296875, 0.03143310546875, 0.03143310546875, 0.03143310546875, 0.03143310546875, 0.0341796875, 0.03631591796875, 0.0384521484375, 0.0384521484375, 0.040283203125, 0.0439453125, 0.04608154296875, 0.04608154296875, 0.04852294921875, 0.04852294921875, 0.0518798828125, 0.0518798828125, 0.05462646484375, 0.0555419921875, 0.059814453125, 0.06378173828125, 0.06378173828125, 0.06683349609375, 0.06866455078125, 0.07293701171875, 0.07293701171875, 0.07659912109375, 0.07965087890625, 0.08148193359375, 0.08331298828125, 0.08331298828125, 0.0872802734375, 0.09063720703125, 0.09307861328125, 0.09307861328125, 0.09368896484375, 0.09521484375, 0.10101318359375, 0.1043701171875, 0.1043701171875, 0.1043701171875, 0.10498046875, 0.10833740234375, 0.11993408203125, 0.11993408203125, 0.12786865234375, 0.1397705078125, 0.174560546875, 0.20538330078125, 0.20538330078125, 0.23040771484375, 0.25543212890625, 0.30548095703125, 0.38970947265625, 0.38970947265625, 0.4986572265625, 0.60760498046875, 0.75408935546875, 0.75408935546875, 0.8978271484375, 1.07513427734375, 1.18804931640625, 1.18804931640625, 1.3360595703125, 1.4764404296875, 1.5887451171875, 1.68548583984375, 1.68548583984375, 1.783447265625, 1.783447265625, 1.89422607421875, 1.89422607421875, 1.983642578125, 1.983642578125, 2.037353515625, 2.037353515625, 2.037353515625, 2.037353515625, 2.0660400390625, 2.0660400390625, 2.06451416015625, 2.06451416015625, 2.06573486328125, 2.06573486328125, 2.06573486328125, 2.06573486328125, 2.0892333984375, 2.0892333984375, 2.086181640625, 2.086181640625, 2.08648681640625, 2.08648681640625, 2.086181640625, 2.086181640625, 2.086181640625, 2.086181640625, 2.0721435546875, 2.0721435546875, 2.04437255859375, 2.04437255859375, 2.06024169921875, 2.06024169921875, 2.05108642578125, 2.05108642578125, 2.05108642578125, 2.05108642578125, 2.0184326171875, 2.0184326171875, 1.99676513671875, 1.99676513671875, 1.99981689453125, 1.99981689453125, 1.99981689453125, 1.99981689453125, 1.99981689453125, 1.99981689453125, 2.000732421875, 2.000732421875, 2.00042724609375, 2.00042724609375, 2.00225830078125, 2.00225830078125, 1.94488525390625, 1.94488525390625, 1.94488525390625, 1.94488525390625, 1.95953369140625, 1.95953369140625, 2.012939453125, 2.012939453125, 1.98333740234375, 1.98333740234375, 1.98333740234375, 1.98333740234375, 1.94976806640625, 1.94976806640625, 1.988525390625, 1.988525390625, 2.02117919921875, 2.02117919921875, 2.02484130859375, 2.02484130859375, 2.02484130859375, 2.02484130859375, 2.02850341796875, 2.02850341796875, 2.03887939453125, 2.03887939453125, 2.0135498046875, 2.0135498046875, 2.0233154296875, 2.0233154296875, 2.0233154296875, 2.0233154296875, 2.0849609375, 2.0849609375, 2.0916748046875, 2.0916748046875, 2.05413818359375, 2.05413818359375, 2.05413818359375, 2.05413818359375, 2.05169677734375, 2.05169677734375, 2.06268310546875, 2.06268310546875, 2.04559326171875, 2.04559326171875, 2.04559326171875, 2.04559326171875, 2.020263671875, 2.020263671875, 2.02484130859375, 2.02484130859375, 2.0111083984375, 2.0111083984375, 1.94244384765625, 1.94244384765625, 1.94244384765625, 1.94244384765625, 1.94732666015625, 1.94732666015625, 1.93389892578125, 1.93389892578125, 1.90826416015625, 1.90826416015625, 1.90826416015625, 1.90826416015625, 1.88507080078125, 1.88507080078125, 1.9281005859375, 1.9281005859375]",0.5,0.0,accepted,3.2773457998409867,2.6309986000414938
pgACC-TUS-staircase,,1,2024-02-13_15h30.18.174,None,06,,,-0.03265380859375,2.891453334263393,2.8120930989583335,2.89642333984375,2.854258219401042,2.886912027994792,2,21,17,21,39,6,6,7.03316285617549,"[0.03692626953125, 0.03692626953125, 0.03662109375, 0.03662109375, 0.0372314453125, 0.03662109375, 0.03662109375, 0.0360107421875, 0.03631591796875, 0.03631591796875, 0.03692626953125, 0.03631591796875, 0.03662109375, 0.03692626953125, 0.03692626953125, 0.03692626953125, 0.0372314453125, 0.03662109375, 0.03662109375, 0.03692626953125, 0.03753662109375, 0.03814697265625, 0.03814697265625, 0.03814697265625, 0.0372314453125, 0.03692626953125, 0.03692626953125, 0.03662109375, 0.03570556640625, 0.03662109375, 0.03631591796875, 0.03631591796875, 0.03662109375, 0.03753662109375, 0.047607421875, 0.047607421875, 0.06378173828125, 0.06927490234375, 0.0762939453125, 0.0762939453125, 0.0775146484375, 0.07781982421875, 0.07904052734375, 0.07781982421875, 0.07781982421875, 0.0787353515625, 0.079345703125, 0.081787109375, 0.081787109375, 0.08697509765625, 0.09735107421875, 0.09796142578125, 0.09979248046875, 0.09979248046875, 0.10711669921875, 0.123291015625, 0.15960693359375, 0.15960693359375, 0.21575927734375, 0.26336669921875, 0.3466796875, 0.467529296875, 0.467529296875, 0.62103271484375, 0.7305908203125, 0.88043212890625, 1.05682373046875, 1.05682373046875, 1.15386962890625, 1.251220703125, 1.34002685546875, 1.34002685546875, 1.46636962890625, 1.5673828125, 1.60064697265625, 1.60064697265625, 1.611328125, 1.622314453125, 1.6436767578125, 1.6571044921875, 1.6571044921875, 1.64459228515625, 1.68731689453125, 1.65496826171875, 1.65496826171875, 1.63848876953125, 1.63482666015625, 1.6363525390625, 1.64947509765625, 1.64947509765625, 1.76666259765625, 1.76666259765625, 1.80938720703125, 1.80938720703125, 1.812744140625, 1.812744140625, 1.812744140625, 1.812744140625, 1.8939208984375, 1.8939208984375, 1.98883056640625, 1.98883056640625, 2.0233154296875, 2.0233154296875, 2.0391845703125, 2.0391845703125, 2.0391845703125, 2.0391845703125, 2.09014892578125, 2.09014892578125, 2.18292236328125, 2.18292236328125, 2.21405029296875, 2.21405029296875, 2.269287109375, 2.269287109375, 2.269287109375, 2.269287109375, 2.27630615234375, 2.27630615234375, 2.2357177734375, 2.2357177734375, 2.2259521484375, 2.2259521484375, 2.2259521484375, 2.2259521484375, 2.22198486328125, 2.22198486328125, 2.222900390625, 2.222900390625, 2.220458984375, 2.220458984375, 2.2222900390625, 2.2222900390625, 2.2222900390625, 2.2222900390625, 2.183837890625, 2.183837890625, 2.1099853515625, 2.1099853515625, 2.12158203125, 2.12158203125, 2.12921142578125, 2.12921142578125, 2.12921142578125, 2.12921142578125, 2.10784912109375, 2.10784912109375, 2.10906982421875, 2.10906982421875, 2.10205078125, 2.10205078125, 2.11883544921875, 2.11883544921875, 2.11883544921875, 2.11883544921875, 2.10662841796875, 2.10662841796875, 2.06512451171875, 2.06512451171875, 2.06512451171875, 2.06512451171875, 2.05108642578125, 2.05108642578125, 2.05108642578125, 2.05108642578125, 2.0526123046875, 2.0526123046875, 2.0550537109375, 2.0550537109375, 2.0538330078125, 2.0538330078125, 2.0538330078125, 2.0538330078125, 2.0208740234375, 2.0208740234375, 2.00439453125, 2.00439453125, 2.02178955078125, 2.02178955078125, 2.02178955078125, 2.02178955078125, 2.00927734375, 2.00927734375, 1.9757080078125, 1.9757080078125, 2.00347900390625, 2.00347900390625, 2.020263671875, 2.020263671875, 2.020263671875, 2.020263671875, 2.01263427734375, 2.01263427734375, 2.0074462890625, 2.0074462890625, 2.01416015625, 2.01416015625, 2.00714111328125, 2.00714111328125, 2.00714111328125, 2.00714111328125, 1.98638916015625, 1.98638916015625, 2.0068359375, 2.0068359375, 2.0123291015625, 2.0123291015625, 2.0123291015625, 2.0123291015625, 2.0074462890625, 2.0074462890625]",0.5,3.0,accepted,3.382105899974704,2.4888582001440227
pgACC-TUS-staircase,,1,2024-02-13_15h30.18.174,None,06,,,-0.03265380859375,2.891453334263393,2.8120930989583335,2.89642333984375,2.854258219401042,2.886912027994792,3,17,13,17,56,6,6,6.627938057985992,"[0.0390625, 0.0390625, 0.0390625, 0.0390625, 0.0390625, 0.0390625, 0.03936767578125, 0.03936767578125, 0.03936767578125, 0.03936767578125, 0.03936767578125, 0.04241943359375, 0.04119873046875, 0.04058837890625, 0.04058837890625, 0.04058837890625, 0.040283203125, 0.040283203125, 0.04058837890625, 0.04058837890625, 0.04150390625, 0.04241943359375, 0.05035400390625, 0.05035400390625, 0.064697265625, 0.07904052734375, 0.09674072265625, 0.1190185546875, 0.1190185546875, 0.1580810546875, 0.2069091796875, 0.2459716796875, 0.2459716796875, 0.30975341796875, 0.4742431640625, 0.601806640625, 0.601806640625, 0.72998046875, 0.9283447265625, 1.087646484375, 1.087646484375, 1.15753173828125, 1.263427734375, 1.35711669921875, 1.35711669921875, 1.407470703125, 1.4251708984375, 1.4813232421875, 1.5570068359375, 1.5570068359375, 1.57135009765625, 1.583251953125, 1.58935546875, 1.58935546875, 1.58355712890625, 1.58111572265625, 1.5863037109375, 1.5863037109375, 1.5936279296875, 1.597900390625, 1.62200927734375, 1.7340087890625, 1.7340087890625, 1.7340087890625, 1.7340087890625, 1.7462158203125, 1.7462158203125, 1.75628662109375, 1.75628662109375, 1.8157958984375, 1.8157958984375, 1.917724609375, 1.917724609375, 1.917724609375, 1.917724609375, 1.9622802734375, 1.9622802734375, 2.02911376953125, 2.02911376953125, 2.0867919921875, 2.0867919921875, 2.0867919921875, 2.0867919921875, 2.1435546875, 2.1435546875, 2.1282958984375, 2.1282958984375, 2.10601806640625, 2.10601806640625, 2.10601806640625, 2.10601806640625, 2.05902099609375, 2.05902099609375, 2.0294189453125, 2.0294189453125, 2.010498046875, 2.010498046875, 2.0001220703125, 2.0001220703125, 2.0001220703125, 2.0001220703125, 1.98822021484375, 1.98822021484375, 1.96868896484375, 1.96868896484375, 1.9635009765625, 1.9635009765625, 1.98638916015625, 1.98638916015625, 1.98638916015625, 1.98638916015625, 1.95343017578125, 1.95343017578125, 1.94610595703125, 1.94610595703125, 1.95526123046875, 1.95526123046875, 1.95526123046875, 1.95526123046875, 1.95098876953125, 1.95098876953125, 1.94732666015625, 1.94732666015625, 1.9464111328125, 1.9464111328125, 1.9427490234375, 1.9427490234375, 1.9427490234375, 1.9427490234375, 1.92169189453125, 1.92169189453125, 1.91162109375, 1.91162109375, 1.92474365234375, 1.92474365234375, 1.92474365234375, 1.92474365234375, 1.9183349609375, 1.9183349609375, 1.89239501953125, 1.89239501953125, 1.87042236328125, 1.87042236328125, 1.873779296875, 1.873779296875, 1.883544921875, 1.883544921875, 1.883544921875, 1.883544921875, 1.8505859375, 1.8505859375, 1.82861328125, 1.82861328125, 1.82708740234375, 1.82708740234375, 1.82708740234375, 1.82708740234375, 1.83685302734375, 1.83685302734375, 1.85699462890625, 1.85699462890625, 1.86187744140625, 1.86187744140625, 1.8328857421875, 1.8328857421875, 1.8328857421875, 1.8328857421875, 1.81060791015625, 1.81060791015625, 1.8450927734375, 1.8450927734375, 1.9134521484375, 1.9134521484375, 1.893310546875, 1.893310546875, 1.893310546875, 1.893310546875, 1.86553955078125, 1.86553955078125, 1.88262939453125, 1.88262939453125, 1.89178466796875, 1.89178466796875]",0.4162834060173129,-1.0,accepted,3.480803200043738,2.0005061000119895
pgACC-TUS-staircase,,1,2024-02-13_15h30.18.174,None,06,,,-0.03265380859375,2.891453334263393,2.8120930989583335,2.89642333984375,2.854258219401042,2.886912027994792,4,13,4,0,56,6,3,0,"[]",0.4162834060173129,-1.986202616623265,rejected,3.066057999851182,0
pgACC-TUS-staircase,,1,2024-02-13_15h30.18.174,None,06,,,-0.03265380859375,2.891453334263393,2.8120930989583335,2.89642333984375,2.854258219401042,2.886912027994792,5,4,8,4,60,3,4,4.3238234403122044,"[0.0421142578125, 0.04302978515625, 0.04302978515625, 0.0445556640625, 0.04486083984375, 0.04547119140625, 0.04547119140625, 0.045166015625, 0.045166015625, 0.045166015625, 0.04486083984375, 0.0439453125, 0.04302978515625, 0.04302978515625, 0.04241943359375, 0.0421142578125, 0.0421142578125, 0.0421142578125, 0.04119873046875, 0.04241943359375, 0.04180908203125, 0.04180908203125, 0.04241943359375, 0.0421142578125, 0.0421142578125, 0.0421142578125, 0.04180908203125, 0.04119873046875, 0.04119873046875, 0.04119873046875, 0.04241943359375, 0.04425048828125, 0.042724609375, 0.045166015625, 0.045166015625, 0.05859375, 0.0701904296875, 0.07781982421875, 0.07781982421875, 0.0933837890625, 0.11688232421875, 0.16143798828125, 0.16143798828125, 0.22064208984375, 0.26275634765625, 0.32379150390625, 0.40771484375, 0.40771484375, 0.479736328125, 0.57952880859375, 0.65093994140625, 0.6939697265625, 0.6939697265625, 0.71014404296875, 0.77728271484375, 0.836181640625, 0.836181640625, 0.86090087890625, 0.86090087890625, 0.88897705078125, 0.88897705078125, 0.90484619140625, 0.90484619140625, 0.9130859375, 0.9130859375, 0.9130859375, 0.9130859375, 0.95611572265625, 0.95611572265625, 1.0028076171875, 1.0028076171875, 1.05560302734375, 1.05560302734375, 1.05560302734375, 1.05560302734375, 1.09466552734375, 1.09466552734375, 1.13189697265625, 1.13189697265625, 1.14715576171875, 1.14715576171875, 1.17889404296875, 1.17889404296875, 1.17889404296875, 1.17889404296875, 1.19964599609375, 1.19964599609375, 1.18743896484375, 1.18743896484375, 1.16943359375, 1.16943359375, 1.16943359375, 1.16943359375, 1.18621826171875, 1.18621826171875, 1.17523193359375, 1.17523193359375, 1.153564453125, 1.153564453125, 1.19110107421875, 1.19110107421875, 1.22833251953125, 1.22833251953125, 1.22833251953125, 1.22833251953125, 1.21673583984375, 1.21673583984375, 1.2237548828125, 1.2237548828125, 1.2298583984375, 1.2298583984375, 1.2274169921875, 1.2274169921875, 1.2274169921875, 1.2274169921875, 1.22344970703125, 1.22344970703125, 1.23931884765625, 1.23931884765625, 1.26953125, 1.26953125, 1.26953125, 1.26953125, 1.27471923828125, 1.27471923828125, 1.26007080078125, 1.26007080078125, 1.26678466796875, 1.26678466796875, 1.26953125, 1.26953125, 1.26953125, 1.26953125, 1.2481689453125, 1.2481689453125, 1.2347412109375, 1.2347412109375, 1.23565673828125, 1.23565673828125, 1.23565673828125, 1.22894287109375, 1.22894287109375, 1.22894287109375, 1.2139892578125, 1.2139892578125, 1.21856689453125, 1.21856689453125, 1.22650146484375, 1.22650146484375, 1.22650146484375, 1.22650146484375, 1.22314453125, 1.22314453125, 1.21978759765625, 1.21978759765625, 1.22100830078125, 1.22100830078125, 1.22100830078125, 1.22100830078125, 1.22100830078125, 1.22100830078125, 1.2164306640625, 1.2164306640625, 1.2261962890625, 1.2261962890625, 1.23992919921875, 1.23992919921875, 1.23992919921875, 1.23992919921875, 1.241455078125, 1.241455078125, 1.2384033203125, 1.2384033203125, 1.2322998046875, 1.2322998046875, 1.234130859375, 1.234130859375, 1.234130859375, 1.234130859375]",0.4162834060173129,0.25344934584418377,accepted,2.5290445999708027,1.9389405001420528
pgACC-TUS-staircase,,1,2024-02-13_15h30.18.174,None,06,,,-0.03265380859375,2.891453334263393,2.8120930989583335,2.89642333984375,2.854258219401042,2.886912027994792,6,8,20,8,68,4,7,4.99848530748258,"[0.0396728515625, 0.0396728515625, 0.0390625, 0.0396728515625, 0.0396728515625, 0.0384521484375, 0.03936767578125, 0.03997802734375, 0.03875732421875, 0.03875732421875, 0.0384521484375, 0.03875732421875, 0.0384521484375, 0.03875732421875, 0.03875732421875, 0.0396728515625, 0.03875732421875, 0.03997802734375, 0.03997802734375, 0.0390625, 0.0390625, 0.03997802734375, 0.04180908203125, 0.04180908203125, 0.04241943359375, 0.0408935546875, 0.040283203125, 0.040283203125, 0.0396728515625, 0.03997802734375, 0.0396728515625, 0.0396728515625, 0.03936767578125, 0.0421142578125, 0.0518798828125, 0.06591796875, 0.06591796875, 0.0775146484375, 0.10589599609375, 0.14892578125, 0.22918701171875, 0.22918701171875, 0.2783203125, 0.3863525390625, 0.511474609375, 0.64056396484375, 0.64056396484375, 0.7830810546875, 0.92010498046875, 0.99609375, 1.09649658203125, 1.09649658203125, 1.1578369140625, 1.1578369140625, 1.2255859375, 1.2255859375, 1.30767822265625, 1.30767822265625, 1.383056640625, 1.383056640625, 1.42852783203125, 1.42852783203125, 1.42852783203125, 1.42852783203125, 1.4532470703125, 1.4532470703125, 1.4501953125, 1.4501953125, 1.419677734375, 1.419677734375, 1.419677734375, 1.419677734375, 1.4007568359375, 1.4007568359375, 1.4215087890625, 1.4215087890625, 1.41632080078125, 1.41632080078125, 1.37237548828125, 1.37237548828125, 1.37237548828125, 1.37237548828125, 1.39923095703125, 1.39923095703125, 1.40380859375, 1.40380859375, 1.34674072265625, 1.34674072265625, 1.33819580078125, 1.33819580078125, 1.33819580078125, 1.33819580078125, 1.33880615234375, 1.33880615234375, 1.33819580078125, 1.33819580078125, 1.35528564453125, 1.35528564453125, 1.42791748046875, 1.42791748046875, 1.42791748046875, 1.42791748046875, 1.43096923828125, 1.43096923828125, 1.4288330078125, 1.4288330078125, 1.4764404296875, 1.4764404296875, 1.4764404296875, 1.4764404296875, 1.483154296875, 1.483154296875, 1.475830078125, 1.475830078125, 1.5020751953125, 1.5020751953125, 1.497802734375, 1.497802734375, 1.497802734375, 1.497802734375, 1.5093994140625, 1.5093994140625, 1.5576171875, 1.5576171875, 1.5631103515625, 1.5631103515625, 1.5631103515625, 1.5631103515625, 1.51824951171875, 1.51824951171875, 1.485595703125, 1.485595703125, 1.47613525390625, 1.47613525390625, 1.46697998046875, 1.46697998046875, 1.46697998046875, 1.46697998046875, 1.451416015625, 1.451416015625, 1.44500732421875, 1.44500732421875, 1.4373779296875, 1.4373779296875, 1.42425537109375, 1.42425537109375, 1.422119140625, 1.422119140625, 1.422119140625, 1.422119140625, 1.42333984375, 1.42333984375, 1.40777587890625, 1.40777587890625, 1.390380859375, 1.390380859375, 1.390380859375, 1.390380859375, 1.40716552734375, 1.40716552734375, 1.42852783203125, 1.42852783203125, 1.4056396484375, 1.4056396484375, 1.41357421875, 1.41357421875, 1.41357421875, 1.41357421875, 1.4251708984375, 1.4251708984375, 1.4117431640625, 1.4117431640625, 1.40655517578125, 1.40655517578125, 1.42669677734375, 1.42669677734375]",0.4162834060173129,1.3394655037229937,accepted,1.7775471999775618,1.8771488999482244
pgACC-TUS-staircase,,1,2024-02-13_15h30.18.174,None,06,,,-0.03265380859375,2.891453334263393,2.8120930989583335,2.89642333984375,2.854258219401042,2.886912027994792,7,20,16,0,68,7,6,0,"[]",0.4162834060173129,-0.3978868948483303,rejected,3.0664844000712037,0
pgACC-TUS-staircase,,1,2024-02-13_15h30.18.174,None,06,,,-0.03265380859375,2.891453334263393,2.8120930989583335,2.89642333984375,2.854258219401042,2.886912027994792,8,16,23,16,84,6,7,6.842846196339789,"[0.0372314453125, 0.03814697265625, 0.03753662109375, 0.03753662109375, 0.03753662109375, 0.0372314453125, 0.0372314453125, 0.0372314453125, 0.03692626953125, 0.03692626953125, 0.037841796875, 0.037841796875, 0.0372314453125, 0.0372314453125, 0.03753662109375, 0.037841796875, 0.0372314453125, 0.03814697265625, 0.03814697265625, 0.0390625, 0.04547119140625, 0.05645751953125, 0.05645751953125, 0.05859375, 0.06011962890625, 0.06103515625, 0.06103515625, 0.0604248046875, 0.06072998046875, 0.0604248046875, 0.05950927734375, 0.05950927734375, 0.05889892578125, 0.0579833984375, 0.0592041015625, 0.07110595703125, 0.07110595703125, 0.11077880859375, 0.205078125, 0.35980224609375, 0.56671142578125, 0.56671142578125, 0.7904052734375, 1.07574462890625, 1.1956787109375, 1.1956787109375, 1.32659912109375, 1.46881103515625, 1.56158447265625, 1.56158447265625, 1.60552978515625, 1.7120361328125, 1.778564453125, 1.778564453125, 1.79595947265625, 1.79595947265625, 1.79595947265625, 1.79595947265625, 1.8182373046875, 1.8182373046875, 1.84844970703125, 1.84844970703125, 1.84051513671875, 1.84051513671875, 1.85699462890625, 1.85699462890625, 1.85699462890625, 1.85699462890625, 1.91070556640625, 1.91070556640625, 1.91802978515625, 1.91802978515625, 1.88873291015625, 1.88873291015625, 1.88873291015625, 1.88873291015625, 1.91864013671875, 1.91864013671875, 1.9476318359375, 1.9476318359375, 1.91680908203125, 1.91680908203125, 1.91497802734375, 1.91497802734375, 1.91497802734375, 1.91497802734375, 1.923828125, 1.923828125, 1.92108154296875, 1.92108154296875, 1.9329833984375, 1.9329833984375, 1.93572998046875, 1.93572998046875, 1.93572998046875, 1.93572998046875, 1.9354248046875, 1.9354248046875, 1.92840576171875, 1.92840576171875, 1.92047119140625, 1.92047119140625, 1.92047119140625, 1.92047119140625, 1.93603515625, 1.93603515625, 1.943359375, 1.943359375, 1.9287109375, 1.9287109375, 1.920166015625, 1.920166015625, 1.920166015625, 1.920166015625, 1.9097900390625, 1.9097900390625, 1.90338134765625, 1.90338134765625, 1.9232177734375, 1.9232177734375, 1.91986083984375, 1.91986083984375, 1.91986083984375, 1.91986083984375, 1.91375732421875, 1.91375732421875, 1.9012451171875, 1.9012451171875, 1.865234375, 1.865234375, 1.883544921875, 1.883544921875, 1.883544921875, 1.883544921875, 1.89422607421875, 1.89422607421875, 1.898193359375, 1.898193359375, 1.86187744140625, 1.86187744140625, 1.86187744140625, 1.86187744140625, 1.86920166015625, 1.86920166015625, 1.89300537109375, 1.89300537109375, 1.88751220703125, 1.88751220703125, 1.88232421875, 1.88232421875, 1.88232421875, 1.88232421875, 1.923828125, 1.923828125, 1.92047119140625, 1.92047119140625, 1.88446044921875, 1.88446044921875, 1.92718505859375, 1.92718505859375, 1.92718505859375, 1.92718505859375, 1.9940185546875, 1.9940185546875, 1.96258544921875, 1.96258544921875, 1.910400390625, 1.910400390625, 1.910400390625, 1.910400390625, 1.932373046875, 1.932373046875, 1.953125, 1.953125]",0.4162834060173129,1.013797383376735,accepted,2.2788084000349045,1.8502094000577927
pgACC-TUS-staircase,,1,2024-02-13_15h30.18.174,None,06,,,-0.03265380859375,2.891453334263393,2.8120930989583335,2.89642333984375,2.854258219401042,2.886912027994792,9,23,18,23,107,7,7,7.052408361102696,"[0.03997802734375, 0.03997802734375, 0.040283203125, 0.03997802734375, 0.04058837890625, 0.04058837890625, 0.04058837890625, 0.0555419921875, 0.0555419921875, 0.04913330078125, 0.047607421875, 0.04638671875, 0.04364013671875, 0.04364013671875, 0.0433349609375, 0.04425048828125, 0.047607421875, 0.047607421875, 0.059814453125, 0.079345703125, 0.0982666015625, 0.0982666015625, 0.11688232421875, 0.1324462890625, 0.17181396484375, 0.2001953125, 0.2001953125, 0.238037109375, 0.3387451171875, 0.58624267578125, 0.58624267578125, 0.8038330078125, 1.05712890625, 1.23992919921875, 1.456298828125, 1.456298828125, 1.5643310546875, 1.62445068359375, 1.749267578125, 1.806640625, 1.806640625, 1.83746337890625, 1.92169189453125, 1.97174072265625, 1.97174072265625, 2.00927734375, 2.00927734375, 2.042236328125, 2.042236328125, 2.08404541015625, 2.08404541015625, 2.08404541015625, 2.08404541015625, 2.07061767578125, 2.07061767578125, 2.076416015625, 2.076416015625, 2.10845947265625, 2.10845947265625, 2.09808349609375, 2.09808349609375, 2.09808349609375, 2.09808349609375, 2.08282470703125, 2.08282470703125, 2.1160888671875, 2.1160888671875, 2.12493896484375, 2.12493896484375, 2.13043212890625, 2.13043212890625, 2.13043212890625, 2.13043212890625, 2.14752197265625, 2.14752197265625, 2.15057373046875, 2.15057373046875, 2.16278076171875, 2.16278076171875, 2.1539306640625, 2.1539306640625, 2.1539306640625, 2.1539306640625, 2.149658203125, 2.149658203125, 2.16827392578125, 2.16827392578125, 2.16766357421875, 2.16766357421875, 2.16766357421875, 2.16766357421875, 2.17803955078125, 2.17803955078125, 2.19268798828125, 2.19268798828125, 2.1826171875, 2.1826171875, 2.17742919921875, 2.17742919921875, 2.17742919921875, 2.17742919921875, 2.17498779296875, 2.17498779296875, 2.1856689453125, 2.1856689453125, 2.20611572265625, 2.20611572265625, 2.19940185546875, 2.19940185546875, 2.19940185546875, 2.19940185546875, 2.19085693359375, 2.19085693359375, 2.1337890625, 2.1337890625, 2.17193603515625, 2.17193603515625, 2.22076416015625, 2.22076416015625, 2.22076416015625, 2.22076416015625, 2.208251953125, 2.208251953125, 2.152099609375, 2.152099609375, 2.138671875, 2.138671875, 2.1563720703125, 2.1563720703125, 2.1563720703125, 2.1563720703125, 2.1630859375, 2.1630859375, 2.18292236328125, 2.18292236328125, 2.17193603515625, 2.17193603515625, 2.11761474609375, 2.11761474609375, 2.11761474609375, 2.11761474609375, 2.0806884765625, 2.0806884765625, 2.10174560546875, 2.10174560546875, 2.11029052734375, 2.11029052734375, 2.11029052734375, 2.11029052734375, 2.08404541015625, 2.08404541015625, 2.05596923828125, 2.05596923828125, 2.0135498046875, 2.0135498046875, 2.02484130859375, 2.02484130859375, 2.02484130859375, 2.02484130859375, 2.05596923828125, 2.05596923828125, 2.0318603515625, 2.0318603515625, 2.0098876953125, 2.0098876953125, 2.012939453125, 2.012939453125]",0.4162834060173129,2.6021131051516697,accepted,1.887323500122875,1.7374411998316646
pgACC-TUS-staircase,,1,2024-02-13_15h30.18.174,None,06,,,-0.03265380859375,2.891453334263393,2.8120930989583335,2.89642333984375,2.854258219401042,2.886912027994792,10,18,14,0,107,7,6,0,"[]",0.4162834060173129,-2.3978868948483303,rejected,1.5528504999820143,0
pgACC-TUS-staircase,,1,2024-02-13_15h30.18.174,None,06,,,-0.03265380859375,2.891453334263393,2.8120930989583335,2.89642333984375,2.854258219401042,2.886912027994792,11,14,20,14,121,6,7,6.697435714667569,"[0.04058837890625, 0.03997802734375, 0.040283203125, 0.040283203125, 0.040283203125, 0.04058837890625, 0.04058837890625, 0.0408935546875, 0.0408935546875, 0.0421142578125, 0.0408935546875, 0.04058837890625, 0.0396728515625, 0.0396728515625, 0.0396728515625, 0.03936767578125, 0.03997802734375, 0.04241943359375, 0.04241943359375, 0.057373046875, 0.07598876953125, 0.0848388671875, 0.1025390625, 0.1025390625, 0.11566162109375, 0.12359619140625, 0.12420654296875, 0.12420654296875, 0.123291015625, 0.13275146484375, 0.1727294921875, 0.20721435546875, 0.20721435546875, 0.24200439453125, 0.39459228515625, 0.53680419921875, 0.53680419921875, 0.65277099609375, 0.79345703125, 0.986328125, 1.11236572265625, 1.11236572265625, 1.22711181640625, 1.3525390625, 1.4556884765625, 1.4556884765625, 1.4923095703125, 1.5545654296875, 1.5936279296875, 1.61865234375, 1.61865234375, 1.6204833984375, 1.71356201171875, 1.71356201171875, 1.72027587890625, 1.72027587890625, 1.700439453125, 1.7340087890625, 1.7340087890625, 1.7340087890625, 1.7340087890625, 1.77703857421875, 1.77703857421875, 1.763916015625, 1.763916015625, 1.7425537109375, 1.7425537109375, 1.7425537109375, 1.7425537109375, 1.77154541015625, 1.77154541015625, 1.8011474609375, 1.8011474609375, 1.79229736328125, 1.79229736328125, 1.81182861328125, 1.81182861328125, 1.81182861328125, 1.81182861328125, 1.88690185546875, 1.88690185546875, 1.92840576171875, 1.92840576171875, 1.9403076171875, 1.9403076171875, 1.9403076171875, 1.9403076171875, 1.95343017578125, 1.95343017578125, 1.93817138671875, 1.93817138671875, 1.90093994140625, 1.90093994140625, 1.90093994140625, 1.90093994140625, 1.92108154296875, 1.92108154296875, 1.93572998046875, 1.93572998046875, 1.92626953125, 1.92626953125, 1.93572998046875, 1.93572998046875, 1.93572998046875, 1.93572998046875, 1.951904296875, 1.951904296875, 1.95770263671875, 1.95770263671875, 1.95037841796875, 1.95037841796875, 1.95037841796875, 1.95037841796875, 1.9970703125, 1.9970703125, 2.0068359375, 2.0068359375, 1.96136474609375, 1.96136474609375, 1.94183349609375, 1.94183349609375, 1.94183349609375, 1.94183349609375, 1.97296142578125, 1.97296142578125, 1.97540283203125, 1.97540283203125, 1.94854736328125, 1.94854736328125, 1.94854736328125, 1.94854736328125, 1.9647216796875, 1.9647216796875, 1.9598388671875, 1.9598388671875, 1.9171142578125, 1.9171142578125, 1.907958984375, 1.907958984375, 1.907958984375, 1.907958984375, 1.88385009765625, 1.88385009765625, 1.844482421875, 1.844482421875, 1.83502197265625, 1.83502197265625, 1.83502197265625, 1.83502197265625, 1.8255615234375, 1.8255615234375, 1.81304931640625, 1.81304931640625, 1.80419921875, 1.80419921875, 1.79840087890625, 1.79840087890625, 1.79840087890625, 1.79840087890625, 1.79840087890625, 1.79840087890625, 1.79840087890625, 1.79840087890625, 1.7919921875, 1.7919921875, 1.7852783203125, 1.7852783203125, 1.7852783203125, 1.7852783203125, 1.81060791015625, 1.81060791015625, 1.88446044921875, 1.88446044921875, 1.905517578125, 1.905517578125, 1.91802978515625, 1.91802978515625, 1.91802978515625, 1.91802978515625, 1.91162109375, 1.91162109375]",0.3594449287638202,-0.9862026166232649,accepted,3.3318475000560284,1.9274955000728369
pgACC-TUS-staircase,,1,2024-02-13_15h30.18.174,None,06,,,-0.03265380859375,2.891453334263393,2.8120930989583335,2.89642333984375,2.854258219401042,2.886912027994792,12,20,4,20,141,7,3,7.912040914517881,"[0.0421142578125, 0.04150390625, 0.04180908203125, 0.04180908203125, 0.045166015625, 0.04241943359375, 0.04241943359375, 0.04241943359375, 0.042724609375, 0.0433349609375, 0.062255859375, 0.062255859375, 0.0787353515625, 0.084228515625, 0.093994140625, 0.093994140625, 0.1007080078125, 0.0994873046875, 0.09765625, 0.08941650390625, 0.08941650390625, 0.08056640625, 0.07568359375, 0.07415771484375, 0.07415771484375, 0.07476806640625, 0.08209228515625, 0.14373779296875, 0.2471923828125, 0.2471923828125, 0.46722412109375, 0.7122802734375, 0.950927734375, 1.16424560546875, 1.16424560546875, 1.31103515625, 1.51092529296875, 1.5826416015625, 1.5826416015625, 1.61041259765625, 1.73553466796875, 1.80419921875, 1.8768310546875, 1.8768310546875, 1.96868896484375, 2.0294189453125, 2.0294189453125, 2.03765869140625, 2.03765869140625, 2.03765869140625, 2.03765869140625, 2.06390380859375, 2.06390380859375, 2.115478515625, 2.115478515625, 2.20245361328125, 2.20245361328125, 2.20245361328125, 2.20245361328125, 2.21649169921875, 2.21649169921875, 2.24029541015625, 2.24029541015625, 2.25677490234375, 2.25677490234375, 2.23297119140625, 2.23297119140625, 2.23297119140625, 2.23297119140625, 2.25128173828125, 2.25128173828125, 2.30316162109375, 2.30316162109375, 2.29095458984375, 2.29095458984375, 2.29095458984375, 2.29095458984375, 2.28424072265625, 2.28424072265625, 2.3492431640625, 2.3492431640625, 2.39227294921875, 2.39227294921875, 2.38494873046875, 2.38494873046875, 2.38494873046875, 2.38494873046875, 2.36236572265625, 2.36236572265625, 2.3309326171875, 2.3309326171875, 2.34710693359375, 2.34710693359375, 2.3712158203125, 2.3712158203125, 2.3712158203125, 2.3712158203125, 2.35107421875, 2.35107421875, 2.2930908203125, 2.2930908203125, 2.30682373046875, 2.30682373046875, 2.30682373046875, 2.30682373046875, 2.30804443359375, 2.30804443359375, 2.2930908203125, 2.2930908203125, 2.296142578125, 2.296142578125, 2.296142578125, 2.296142578125, 2.31536865234375, 2.31536865234375, 2.30712890625, 2.30712890625, 2.35870361328125, 2.35870361328125, 2.4029541015625, 2.4029541015625, 2.4029541015625, 2.4029541015625, 2.3980712890625, 2.3980712890625, 2.3516845703125, 2.3516845703125, 2.3834228515625, 2.3834228515625, 2.3834228515625, 2.3834228515625, 2.40203857421875, 2.40203857421875, 2.393798828125, 2.393798828125, 2.39837646484375, 2.39837646484375, 2.40447998046875, 2.40447998046875, 2.40447998046875, 2.40447998046875, 2.41668701171875, 2.41668701171875, 2.40478515625, 2.40478515625, 2.398681640625, 2.398681640625, 2.398681640625, 2.398681640625, 2.38494873046875, 2.38494873046875, 2.344970703125, 2.344970703125, 2.303466796875, 2.303466796875, 2.288818359375, 2.288818359375, 2.288818359375, 2.288818359375, 2.2662353515625, 2.2662353515625, 2.28912353515625, 2.28912353515625, 2.2589111328125, 2.2589111328125, 2.25830078125, 2.25830078125, 2.25830078125, 2.25830078125]",0.3594449287638202,2.3871984905728105,accepted,1.953001599991694,1.755184100009501
pgACC-TUS-staircase,,1,2024-02-13_15h30.18.174,None,06,,,-0.03265380859375,2.891453334263393,2.8120930989583335,2.89642333984375,2.854258219401042,2.886912027994792,13,4,25,4,145,3,8,4.355899281857547,"[0.0469970703125, 0.04730224609375, 0.04669189453125, 0.04669189453125, 0.0469970703125, 0.04608154296875, 0.0469970703125, 0.0469970703125, 0.047607421875, 0.04730224609375, 0.04730224609375, 0.04730224609375, 0.05096435546875, 0.0494384765625, 0.048828125, 0.04852294921875, 0.04852294921875, 0.04852294921875, 0.0494384765625, 0.054931640625, 0.054931640625, 0.05645751953125, 0.0592041015625, 0.06683349609375, 0.06683349609375, 0.08941650390625, 0.1214599609375, 0.19073486328125, 0.24139404296875, 0.24139404296875, 0.3363037109375, 0.46661376953125, 0.59906005859375, 0.59906005859375, 0.74066162109375, 0.8856201171875, 0.8856201171875, 0.9503173828125, 0.9503173828125, 0.9503173828125, 0.9503173828125, 1.08184814453125, 1.08184814453125, 1.097412109375, 1.097412109375, 1.175537109375, 1.175537109375, 1.175537109375, 1.175537109375, 1.20880126953125, 1.20880126953125, 1.2103271484375, 1.2103271484375, 1.22802734375, 1.22802734375, 1.26983642578125, 1.26983642578125, 1.26983642578125, 1.26983642578125, 1.275634765625, 1.275634765625, 1.2664794921875, 1.2664794921875, 1.295166015625, 1.295166015625, 1.295166015625, 1.295166015625, 1.2994384765625, 1.2994384765625, 1.2701416015625, 1.2701416015625, 1.26312255859375, 1.26312255859375, 1.279296875, 1.279296875, 1.279296875, 1.279296875, 1.28997802734375, 1.28997802734375, 1.279296875, 1.279296875, 1.28448486328125, 1.28448486328125, 1.29791259765625, 1.29791259765625, 1.29791259765625, 1.29791259765625, 1.28509521484375, 1.28509521484375, 1.2786865234375, 1.2786865234375, 1.2890625, 1.2890625, 1.2890625, 1.2890625, 1.2908935546875, 1.2908935546875, 1.2799072265625, 1.2799072265625, 1.2799072265625, 1.2799072265625, 1.29669189453125, 1.29669189453125, 1.29669189453125, 1.29669189453125, 1.287841796875, 1.287841796875, 1.28448486328125, 1.28448486328125, 1.28387451171875, 1.28387451171875, 1.27410888671875, 1.27410888671875, 1.27410888671875, 1.27410888671875, 1.25030517578125, 1.25030517578125, 1.24847412109375, 1.24847412109375, 1.26953125, 1.26953125, 1.26953125, 1.26953125, 1.258544921875, 1.258544921875, 1.24359130859375, 1.24359130859375, 1.240234375, 1.240234375, 1.240234375, 1.240234375, 1.23291015625, 1.23291015625, 1.220703125, 1.220703125, 1.234130859375, 1.234130859375, 1.234130859375, 1.234130859375, 1.25396728515625, 1.25396728515625, 1.24603271484375, 1.24603271484375, 1.22802734375, 1.22802734375, 1.22802734375, 1.22802734375, 1.23809814453125, 1.23809814453125, 1.24725341796875, 1.24725341796875, 1.23931884765625, 1.23931884765625, 1.2432861328125, 1.2432861328125, 1.2432861328125, 1.2432861328125]",0.3594449287638202,0.7649956411256178,accepted,1.3909837000537664,1.5775148998945951
pgACC-TUS-staircase,,1,2024-02-13_15h30.18.174,None,06,,,-0.03265380859375,2.891453334263393,2.8120930989583335,2.89642333984375,2.854258219401042,2.886912027994792,14,25,7,25,170,8,5,8.717144537305986,"[0.04241943359375, 0.04180908203125, 0.0421142578125, 0.04180908203125, 0.04180908203125, 0.042724609375, 0.04180908203125, 0.04180908203125, 0.04302978515625, 0.042724609375, 0.0421142578125, 0.0421142578125, 0.04241943359375, 0.04364013671875, 0.06195068359375, 0.06195068359375, 0.06256103515625, 0.068359375, 0.07659912109375, 0.07659912109375, 0.0885009765625, 0.11199951171875, 0.17364501953125, 0.26519775390625, 0.26519775390625, 0.46356201171875, 0.69061279296875, 1.0186767578125, 1.248779296875, 1.248779296875, 1.480712890625, 1.6253662109375, 1.7755126953125, 1.7755126953125, 1.84600830078125, 1.9244384765625, 1.983642578125, 2.0269775390625, 2.0269775390625, 2.0465087890625, 2.0526123046875, 2.0916748046875, 2.09136962890625, 2.09136962890625, 2.13714599609375, 2.1636962890625, 2.16796875, 2.18353271484375, 2.18353271484375, 2.1942138671875, 2.2265625, 2.22808837890625, 2.22808837890625, 2.24609375, 2.3309326171875, 2.3309326171875, 2.36602783203125, 2.36602783203125, 2.3919677734375, 2.3919677734375, 2.3919677734375, 2.3919677734375, 2.420654296875, 2.420654296875, 2.4188232421875, 2.4188232421875, 2.43896484375, 2.43896484375, 2.43896484375, 2.43896484375, 2.435302734375, 2.435302734375, 2.42401123046875, 2.42401123046875, 2.45361328125, 2.45361328125, 2.4658203125, 2.4658203125, 2.4658203125, 2.4658203125, 2.45452880859375, 2.45452880859375, 2.43621826171875, 2.43621826171875, 2.40570068359375, 2.40570068359375, 2.37945556640625, 2.37945556640625, 2.37945556640625, 2.37945556640625, 2.38525390625, 2.38525390625, 2.40631103515625, 2.40631103515625, 2.38861083984375, 2.38861083984375, 2.38861083984375, 2.38861083984375, 2.384033203125, 2.384033203125, 2.39959716796875, 2.39959716796875, 2.41912841796875, 2.41912841796875, 2.41912841796875, 2.41912841796875, 2.4285888671875, 2.4285888671875, 2.4298095703125, 2.4298095703125, 2.4371337890625, 2.4371337890625, 2.48077392578125, 2.48077392578125, 2.48077392578125, 2.48077392578125, 2.5042724609375, 2.5042724609375, 2.49542236328125, 2.49542236328125, 2.49847412109375, 2.49847412109375, 2.49847412109375, 2.49847412109375, 2.52899169921875, 2.52899169921875, 2.54425048828125, 2.54425048828125, 2.53753662109375, 2.53753662109375, 2.4969482421875, 2.4969482421875, 2.4969482421875, 2.4969482421875, 2.5372314453125, 2.5372314453125, 2.5140380859375, 2.5140380859375, 2.4908447265625, 2.4908447265625, 2.4908447265625, 2.4908447265625, 2.496337890625, 2.496337890625, 2.5347900390625, 2.5347900390625, 2.5244140625, 2.5244140625, 2.48046875, 2.48046875, 2.48046875, 2.48046875, 2.48779296875, 2.48779296875, 2.515869140625, 2.515869140625, 2.50244140625, 2.50244140625, 2.48504638671875, 2.48504638671875, 2.48504638671875, 2.48504638671875, 2.50823974609375, 2.50823974609375, 2.53509521484375, 2.53509521484375, 2.4981689453125, 2.4981689453125, 2.4981689453125, 2.4981689453125, 2.49298095703125, 2.49298095703125, 2.491455078125, 2.491455078125, 2.48809814453125, 2.48809814453125]",0.3594449287638202,1.9955245591155055,accepted,2.775086399866268,1.883440300123766
pgACC-TUS-staircase,,1,2024-02-13_15h30.18.174,None,06,,,-0.03265380859375,2.891453334263393,2.8120930989583335,2.89642333984375,2.854258219401042,2.886912027994792,15,7,28,7,177,5,10,5.994974784824563,"[0.0469970703125, 0.0469970703125, 0.0469970703125, 0.04730224609375, 0.04791259765625, 0.047607421875, 0.047607421875, 0.047607421875, 0.04791259765625, 0.04791259765625, 0.047607421875, 0.047607421875, 0.04669189453125, 0.04669189453125, 0.04669189453125, 0.04669189453125, 0.04730224609375, 0.04730224609375, 0.04638671875, 0.04638671875, 0.04669189453125, 0.04669189453125, 0.04669189453125, 0.04669189453125, 0.04852294921875, 0.04852294921875, 0.0494384765625, 0.05767822265625, 0.06622314453125, 0.06622314453125, 0.07720947265625, 0.1092529296875, 0.1593017578125, 0.20050048828125, 0.20050048828125, 0.24749755859375, 0.31158447265625, 0.41900634765625, 0.51971435546875, 0.51971435546875, 0.63873291015625, 0.74920654296875, 0.87249755859375, 0.87249755859375, 1.0687255859375, 1.181640625, 1.27532958984375, 1.37237548828125, 1.37237548828125, 1.453857421875, 1.453857421875, 1.5155029296875, 1.5155029296875, 1.54998779296875, 1.54998779296875, 1.57562255859375, 1.57562255859375, 1.57562255859375, 1.57562255859375, 1.607666015625, 1.607666015625, 1.61895751953125, 1.61895751953125, 1.65130615234375, 1.65130615234375, 1.73095703125, 1.73095703125, 1.73095703125, 1.73095703125, 1.75689697265625, 1.75689697265625, 1.75933837890625, 1.75933837890625, 1.77154541015625, 1.77154541015625, 1.7510986328125, 1.7510986328125, 1.7510986328125, 1.7510986328125, 1.7181396484375, 1.7181396484375, 1.700439453125, 1.700439453125, 1.7010498046875, 1.7010498046875, 1.68701171875, 1.68701171875, 1.68701171875, 1.68701171875, 1.717529296875, 1.717529296875, 1.71295166015625, 1.71295166015625, 1.72637939453125, 1.72637939453125, 1.7681884765625, 1.7681884765625, 1.7681884765625, 1.7681884765625, 1.74468994140625, 1.74468994140625, 1.73675537109375, 1.73675537109375, 1.754150390625, 1.754150390625, 1.754150390625, 1.754150390625, 1.7535400390625, 1.7535400390625, 1.75140380859375, 1.75140380859375, 1.776123046875, 1.776123046875, 1.75567626953125, 1.75567626953125, 1.75567626953125, 1.75567626953125, 1.75262451171875, 1.75262451171875, 1.768798828125, 1.768798828125, 1.768798828125, 1.768798828125, 1.7529296875, 1.7529296875, 1.75506591796875, 1.75506591796875, 1.7584228515625, 1.7584228515625, 1.7620849609375, 1.7620849609375, 1.7620849609375, 1.7620849609375, 1.7816162109375, 1.7816162109375, 1.76605224609375, 1.76605224609375, 1.75567626953125, 1.75567626953125, 1.75567626953125, 1.75567626953125, 1.7425537109375, 1.7425537109375, 1.70745849609375, 1.70745849609375, 1.69708251953125, 1.69708251953125, 1.69708251953125, 1.69708251953125, 1.68060302734375, 1.68060302734375, 1.69891357421875, 1.69891357421875, 1.70257568359375, 1.70257568359375, 1.69769287109375, 1.69769287109375, 1.7138671875, 1.7138671875, 1.7138671875, 1.7138671875, 1.719970703125, 1.719970703125, 1.7047119140625, 1.7047119140625, 1.70074462890625, 1.70074462890625, 1.70074462890625, 1.70074462890625, 1.71112060546875, 1.71112060546875]",0.3075484903246412,-1.9861232190955054,accepted,1.4612346000503749,1.800935799954459
pgACC-TUS-staircase,,1,2024-02-13_15h30.18.174,None,06,,,-0.03265380859375,2.891453334263393,2.8120930989583335,2.89642333984375,2.854258219401042,2.886912027994792,16,28,7,0,177,10,5,0,"[]",0.3075484903246412,-2.754849032464122,rejected,1.260329999960959,0
pgACC-TUS-staircase,,1,2024-02-13_15h30.18.174,None,06,,,-0.03265380859375,2.891453334263393,2.8120930989583335,2.89642333984375,2.854258219401042,2.886912027994792,17,7,24,7,184,5,10,5.232638950763583,"[0.04486083984375, 0.045166015625, 0.0445556640625, 0.045166015625, 0.045166015625, 0.0445556640625, 0.04486083984375, 0.04486083984375, 0.04486083984375, 0.0445556640625, 0.04425048828125, 0.04425048828125, 0.0445556640625, 0.04974365234375, 0.04730224609375, 0.04730224609375, 0.04638671875, 0.04608154296875, 0.0457763671875, 0.0457763671875, 0.0457763671875, 0.04608154296875, 0.0482177734375, 0.05584716796875, 0.05584716796875, 0.0634765625, 0.07415771484375, 0.09552001953125, 0.09552001953125, 0.12115478515625, 0.1708984375, 0.23162841796875, 0.29937744140625, 0.29937744140625, 0.4400634765625, 0.6036376953125, 0.73333740234375, 0.73333740234375, 0.9063720703125, 1.068115234375, 1.17340087890625, 1.28143310546875, 1.28143310546875, 1.3275146484375, 1.4117431640625, 1.466064453125, 1.466064453125, 1.48406982421875, 1.48406982421875, 1.48406982421875, 1.48406982421875, 1.5087890625, 1.5087890625, 1.51824951171875, 1.51824951171875, 1.5057373046875, 1.5057373046875, 1.49749755859375, 1.49749755859375, 1.49749755859375, 1.49749755859375, 1.50634765625, 1.50634765625, 1.48590087890625, 1.48590087890625, 1.47674560546875, 1.47674560546875, 1.47674560546875, 1.47674560546875, 1.5087890625, 1.5087890625, 1.52099609375, 1.52099609375, 1.4984130859375, 1.4984130859375, 1.51397705078125, 1.51397705078125, 1.51397705078125, 1.51397705078125, 1.52984619140625, 1.52984619140625, 1.533203125, 1.533203125, 1.51397705078125, 1.51397705078125, 1.51397705078125, 1.51397705078125, 1.5399169921875, 1.5399169921875, 1.55731201171875, 1.55731201171875, 1.5338134765625, 1.5338134765625, 1.5338134765625, 1.5338134765625, 1.54266357421875, 1.54266357421875, 1.572265625, 1.572265625, 1.57623291015625, 1.57623291015625, 1.57318115234375, 1.57318115234375, 1.57318115234375, 1.57318115234375, 1.56982421875, 1.56982421875, 1.57073974609375, 1.57073974609375, 1.5655517578125, 1.5655517578125, 1.57379150390625, 1.57379150390625, 1.58111572265625, 1.58111572265625, 1.58111572265625, 1.58111572265625, 1.57379150390625, 1.57379150390625, 1.57806396484375, 1.57806396484375, 1.5936279296875, 1.5936279296875, 1.5936279296875, 1.5936279296875, 1.5924072265625, 1.5924072265625, 1.5924072265625, 1.5924072265625, 1.5972900390625, 1.5972900390625, 1.5972900390625, 1.5972900390625, 1.61346435546875, 1.61346435546875, 1.6253662109375, 1.6253662109375, 1.61773681640625, 1.61773681640625, 1.62567138671875, 1.62567138671875, 1.62567138671875, 1.62567138671875, 1.61590576171875, 1.61590576171875, 1.6094970703125, 1.6094970703125, 1.610107421875, 1.610107421875, 1.60308837890625, 1.60308837890625, 1.60308837890625, 1.60308837890625, 1.6021728515625, 1.6021728515625, 1.5911865234375, 1.5911865234375, 1.57562255859375, 1.57562255859375, 1.57562255859375, 1.57562255859375, 1.5570068359375, 1.5570068359375, 1.522216796875, 1.522216796875, 1.5087890625, 1.5087890625, 1.4935302734375, 1.4935302734375]",0.2574772602203411,-0.6887122581160305,accepted,1.7902006001677364,1.7583532999269664
pgACC-TUS-staircase,,1,2024-02-13_15h30.18.174,None,06,,,-0.03265380859375,2.891453334263393,2.8120930989583335,2.89642333984375,2.854258219401042,2.886912027994792,18,24,21,0,184,10,9,0,"[]",0.2574772602203411,-1.7477260220341115,rejected,2.2040694998577237,0
pgACC-TUS-staircase,,1,2024-02-13_15h30.18.174,None,06,,,-0.03265380859375,2.891453334263393,2.8120930989583335,2.89642333984375,2.854258219401042,2.886912027994792,19,21,17,0,184,9,7,0,"[]",0.306004578192642,0.14434192215236763,rejected,1.2186369998380542,0
pgACC-TUS-staircase,,1,2024-02-13_15h30.18.174,None,06,,,-0.03265380859375,2.891453334263393,2.8120930989583335,2.89642333984375,2.854258219401042,2.886912027994792,20,17,20,17,201,7,8,7.804052247981894,"[0.0408935546875, 0.04058837890625, 0.040283203125, 0.040283203125, 0.0396728515625, 0.03997802734375, 0.03997802734375, 0.0396728515625, 0.03997802734375, 0.048828125, 0.05615234375, 0.05615234375, 0.047607421875, 0.04638671875, 0.047607421875, 0.04913330078125, 0.04913330078125, 0.04974365234375, 0.05218505859375, 0.06591796875, 0.07904052734375, 0.07904052734375, 0.08575439453125, 0.08758544921875, 0.08575439453125, 0.081787109375, 0.081787109375, 0.0799560546875, 0.07965087890625, 0.07904052734375, 0.07904052734375, 0.08209228515625, 0.10711669921875, 0.18035888671875, 0.281982421875, 0.281982421875, 0.43365478515625, 0.6048583984375, 0.81146240234375, 1.04034423828125, 1.04034423828125, 1.22650146484375, 1.42730712890625, 1.5618896484375, 1.70928955078125, 1.70928955078125, 1.80694580078125, 1.91253662109375, 1.9561767578125, 1.971435546875, 1.971435546875, 1.99676513671875, 2.02392578125, 2.02392578125, 2.061767578125, 2.061767578125, 2.07427978515625, 2.07427978515625, 2.07427978515625, 2.07427978515625, 2.0947265625, 2.0947265625, 2.1185302734375, 2.1185302734375, 2.08038330078125, 2.08038330078125, 2.08038330078125, 2.08038330078125, 2.0697021484375, 2.0697021484375, 2.07061767578125, 2.07061767578125, 2.1112060546875, 2.1112060546875, 2.1112060546875, 2.1112060546875, 2.0855712890625, 2.0855712890625, 2.0538330078125, 2.0538330078125, 2.07244873046875, 2.07244873046875, 2.091064453125, 2.091064453125, 2.091064453125, 2.091064453125, 2.0819091796875, 2.0819091796875, 2.07611083984375, 2.07611083984375, 2.0806884765625, 2.0806884765625, 2.07733154296875, 2.07733154296875, 2.07733154296875, 2.07733154296875, 2.110595703125, 2.110595703125, 2.14813232421875, 2.14813232421875, 2.1502685546875, 2.1502685546875, 2.1502685546875, 2.1502685546875, 2.12677001953125, 2.12677001953125, 2.1502685546875, 2.1502685546875, 2.176513671875, 2.176513671875, 2.15362548828125, 2.15362548828125, 2.15362548828125, 2.15362548828125, 2.132568359375, 2.132568359375, 2.16156005859375, 2.16156005859375, 2.1551513671875, 2.1551513671875, 2.1551513671875, 2.1551513671875, 2.105712890625, 2.105712890625, 2.10479736328125, 2.10479736328125, 2.11761474609375, 2.11761474609375, 2.1044921875, 2.1044921875, 2.1044921875, 2.1044921875, 2.10723876953125, 2.10723876953125, 2.12799072265625, 2.12799072265625, 2.13623046875, 2.13623046875, 2.11456298828125, 2.11456298828125, 2.11456298828125, 2.11456298828125, 2.08740234375, 2.08740234375, 2.08984375, 2.08984375, 2.06573486328125, 2.06573486328125, 2.06573486328125, 2.06573486328125, 2.04986572265625, 2.04986572265625, 2.04803466796875, 2.04803466796875, 2.04681396484375, 2.04681396484375, 2.04681396484375, 2.04681396484375, 2.04742431640625, 2.04742431640625, 2.0416259765625, 2.0416259765625, 2.0458984375, 2.0458984375, 2.05535888671875, 2.05535888671875, 2.05535888671875, 2.05535888671875, 2.06695556640625, 2.06695556640625, 2.15301513671875, 2.15301513671875, 2.22747802734375, 2.22747802734375]",0.306004578192642,2.005775668560542,accepted,4.407191700069234,1.8607785000931472
pgACC-TUS-staircase,,1,2024-02-13_15h30.18.174,None,06,,,-0.03265380859375,2.891453334263393,2.8120930989583335,2.89642333984375,2.854258219401042,2.886912027994792,21,20,9,0,201,8,5,0,"[]",0.3532032752592607,0.41570699567091296,rejected,2.030156100168824,0
pgACC-TUS-staircase,,1,2024-02-13_15h30.18.174,None,06,,,-0.03265380859375,2.891453334263393,2.8120930989583335,2.89642333984375,2.854258219401042,2.886912027994792,22,9,14,9,210,5,6,6.095479088333303,"[0.04150390625, 0.04119873046875, 0.0408935546875, 0.0408935546875, 0.04150390625, 0.04058837890625, 0.04058837890625, 0.04119873046875, 0.0408935546875, 0.0408935546875, 0.0408935546875, 0.04058837890625, 0.0408935546875, 0.04058837890625, 0.04058837890625, 0.04058837890625, 0.040283203125, 0.04302978515625, 0.04302978515625, 0.04119873046875, 0.04241943359375, 0.04241943359375, 0.0433349609375, 0.0433349609375, 0.0445556640625, 0.047607421875, 0.05157470703125, 0.0634765625, 0.0634765625, 0.091552734375, 0.1416015625, 0.22003173828125, 0.22003173828125, 0.27862548828125, 0.44891357421875, 0.5780029296875, 0.5780029296875, 0.72509765625, 0.94879150390625, 1.134033203125, 1.2701416015625, 1.2701416015625, 1.3140869140625, 1.3970947265625, 1.45599365234375, 1.45599365234375, 1.45599365234375, 1.45599365234375, 1.49810791015625, 1.49810791015625, 1.55517578125, 1.55517578125, 1.57684326171875, 1.57684326171875, 1.5863037109375, 1.5863037109375, 1.5863037109375, 1.5863037109375, 1.588134765625, 1.588134765625, 1.593017578125, 1.593017578125, 1.59698486328125, 1.59698486328125, 1.59698486328125, 1.59698486328125, 1.590576171875, 1.590576171875, 1.5814208984375, 1.5814208984375, 1.588134765625, 1.588134765625, 1.588134765625, 1.588134765625, 1.58966064453125, 1.58966064453125, 1.58294677734375, 1.58294677734375, 1.58477783203125, 1.58477783203125, 1.59637451171875, 1.59637451171875, 1.59637451171875, 1.59637451171875, 1.58721923828125, 1.58721923828125, 1.5838623046875, 1.5838623046875, 1.60125732421875, 1.60125732421875, 1.60125732421875, 1.60125732421875, 1.6058349609375, 1.6058349609375, 1.60186767578125, 1.60186767578125, 1.61865234375, 1.61865234375, 1.62322998046875, 1.62322998046875, 1.62322998046875, 1.62322998046875, 1.62689208984375, 1.62689208984375, 1.62567138671875, 1.62567138671875, 1.6473388671875, 1.6473388671875, 1.64581298828125, 1.64581298828125, 1.64581298828125, 1.64581298828125, 1.622314453125, 1.622314453125, 1.6290283203125, 1.6290283203125, 1.62353515625, 1.62353515625, 1.59393310546875, 1.59393310546875, 1.59393310546875, 1.59393310546875, 1.58050537109375, 1.58050537109375, 1.57501220703125, 1.57501220703125, 1.5478515625, 1.5478515625, 1.5478515625, 1.5478515625, 1.5118408203125, 1.5118408203125, 1.4990234375, 1.4990234375, 1.4703369140625, 1.4703369140625, 1.45782470703125, 1.45782470703125, 1.45782470703125, 1.45782470703125, 1.4697265625, 1.4697265625, 1.4715576171875, 1.4715576171875, 1.490478515625, 1.490478515625, 1.551513671875, 1.551513671875, 1.551513671875, 1.551513671875, 1.57623291015625, 1.57623291015625, 1.5771484375, 1.5771484375, 1.5826416015625, 1.5826416015625, 1.591796875, 1.591796875, 1.591796875, 1.591796875, 1.59759521484375, 1.59759521484375, 1.617431640625, 1.617431640625, 1.70745849609375, 1.70745849609375, 1.73980712890625, 1.73980712890625]",0.3532032752592607,0.16991811851848304,accepted,2.8508706998545676,1.7342630000784993
pgACC-TUS-staircase,,1,2024-02-13_15h30.18.174,None,06,,,-0.03265380859375,2.891453334263393,2.8120930989583335,2.89642333984375,2.854258219401042,2.886912027994792,23,14,6,14,224,6,4,6.83108505443983,"[0.0439453125, 0.04364013671875, 0.04364013671875, 0.0439453125, 0.04364013671875, 0.04364013671875, 0.0445556640625, 0.04425048828125, 0.04425048828125, 0.04486083984375, 0.04486083984375, 0.04364013671875, 0.0439453125, 0.04608154296875, 0.04608154296875, 0.05218505859375, 0.04974365234375, 0.048828125, 0.04791259765625, 0.04791259765625, 0.04730224609375, 0.04730224609375, 0.04669189453125, 0.04638671875, 0.04638671875, 0.05279541015625, 0.062255859375, 0.06256103515625, 0.06256103515625, 0.0732421875, 0.08697509765625, 0.1025390625, 0.118408203125, 0.118408203125, 0.18890380859375, 0.234375, 0.2655029296875, 0.2655029296875, 0.3192138671875, 0.4217529296875, 0.49224853515625, 0.54779052734375, 0.54779052734375, 0.61309814453125, 0.69549560546875, 0.77972412109375, 0.77972412109375, 0.88653564453125, 0.93414306640625, 0.9906005859375, 0.9906005859375, 1.0601806640625, 1.11968994140625, 1.13433837890625, 1.16912841796875, 1.16912841796875, 1.2213134765625, 1.28387451171875, 1.302490234375, 1.3525390625, 1.3525390625, 1.4202880859375, 1.48223876953125, 1.541748046875, 1.58416748046875, 1.58416748046875, 1.60125732421875, 1.60888671875, 1.6253662109375, 1.75872802734375, 1.75872802734375, 1.75872802734375, 1.75872802734375, 1.76910400390625, 1.76910400390625, 1.74224853515625, 1.74224853515625, 1.74713134765625, 1.74713134765625, 1.773681640625, 1.773681640625, 1.773681640625, 1.773681640625, 1.77459716796875, 1.77459716796875, 1.7730712890625, 1.7730712890625, 1.76544189453125, 1.76544189453125, 1.76544189453125, 1.76544189453125, 1.76116943359375, 1.76116943359375, 1.79779052734375, 1.79779052734375, 1.8121337890625, 1.8121337890625, 1.8170166015625, 1.8170166015625, 1.8170166015625, 1.8170166015625, 1.8121337890625, 1.8121337890625, 1.81060791015625, 1.81060791015625, 1.80389404296875, 1.80389404296875, 1.802978515625, 1.802978515625, 1.802978515625, 1.802978515625, 1.80389404296875, 1.80389404296875, 1.8060302734375, 1.8060302734375, 1.80572509765625, 1.80572509765625, 1.80389404296875, 1.80389404296875, 1.80389404296875, 1.80389404296875, 1.827392578125, 1.827392578125, 1.85699462890625, 1.85699462890625, 1.8341064453125, 1.8341064453125, 1.82342529296875, 1.82342529296875, 1.82342529296875, 1.82342529296875, 1.8389892578125, 1.8389892578125, 1.82769775390625, 1.82769775390625, 1.80419921875, 1.80419921875, 1.80419921875, 1.80419921875, 1.8328857421875, 1.8328857421875, 1.861572265625, 1.861572265625, 1.83868408203125, 1.83868408203125, 1.8634033203125, 1.8634033203125, 1.8634033203125, 1.8634033203125, 1.90887451171875, 1.90887451171875, 1.9012451171875, 1.9012451171875, 1.9061279296875, 1.9061279296875, 1.9061279296875, 1.9061279296875, 1.9189453125, 1.9189453125, 1.91802978515625, 1.91802978515625, 1.929931640625, 1.929931640625, 1.929931640625, 1.929931640625, 2.0062255859375, 2.0062255859375, 2.010498046875, 2.010498046875, 2.01141357421875, 2.01141357421875, 2.03887939453125, 2.03887939453125, 2.03887939453125, 2.03887939453125, 2.03216552734375, 2.03216552734375, 2.0068359375, 2.0068359375, 1.99859619140625, 1.99859619140625, 1.99859619140625, 1.99859619140625, 1.9781494140625, 1.9781494140625, 1.9512939453125, 1.9512939453125, 1.944580078125, 1.944580078125, 1.94976806640625, 1.94976806640625]",0.3532032752592607,1.2846820906666139,accepted,1.2433630002196878,2.1437776999082416
pgACC-TUS-staircase,,1,2024-02-13_15h30.18.174,None,06,,,-0.03265380859375,2.891453334263393,2.8120930989583335,2.89642333984375,2.854258219401042,2.886912027994792,24,6,30,6,230,4,9,4.985654970864443,"[0.04791259765625, 0.04852294921875, 0.04791259765625, 0.04791259765625, 0.04791259765625, 0.04852294921875, 0.0482177734375, 0.0482177734375, 0.04852294921875, 0.04852294921875, 0.04852294921875, 0.048828125, 0.0482177734375, 0.04852294921875, 0.04852294921875, 0.047607421875, 0.0482177734375, 0.04852294921875, 0.05340576171875, 0.05340576171875, 0.05279541015625, 0.05615234375, 0.06256103515625, 0.06256103515625, 0.06591796875, 0.0750732421875, 0.0982666015625, 0.0982666015625, 0.1129150390625, 0.1153564453125, 0.12542724609375, 0.16326904296875, 0.16326904296875, 0.2142333984375, 0.2508544921875, 0.34088134765625, 0.34088134765625, 0.5474853515625, 0.7000732421875, 0.9033203125, 1.0931396484375, 1.0931396484375, 1.26922607421875, 1.26922607421875, 1.4178466796875, 1.4178466796875, 1.50604248046875, 1.50604248046875, 1.5631103515625, 1.5631103515625, 1.5631103515625, 1.5631103515625, 1.59271240234375, 1.59271240234375, 1.59271240234375, 1.59271240234375, 1.58966064453125, 1.58966064453125, 1.58966064453125, 1.58966064453125, 1.59393310546875, 1.59393310546875, 1.5765380859375, 1.5765380859375, 1.56219482421875, 1.56219482421875, 1.505126953125, 1.505126953125, 1.505126953125, 1.505126953125, 1.468505859375, 1.468505859375, 1.47705078125, 1.47705078125, 1.463623046875, 1.463623046875, 1.463623046875, 1.463623046875, 1.46636962890625, 1.46636962890625, 1.497802734375, 1.497802734375, 1.5142822265625, 1.5142822265625, 1.5142822265625, 1.5142822265625, 1.52099609375, 1.52099609375, 1.5399169921875, 1.5399169921875, 1.5386962890625, 1.5386962890625, 1.5228271484375, 1.5228271484375, 1.5228271484375, 1.5228271484375, 1.51824951171875, 1.51824951171875, 1.52618408203125, 1.52618408203125, 1.51519775390625, 1.51519775390625, 1.50909423828125, 1.50909423828125, 1.50909423828125, 1.50909423828125, 1.5216064453125, 1.5216064453125, 1.52740478515625, 1.52740478515625, 1.51123046875, 1.51123046875, 1.51123046875, 1.51123046875, 1.51214599609375, 1.51214599609375, 1.50421142578125, 1.50421142578125, 1.4862060546875, 1.4862060546875, 1.47857666015625, 1.47857666015625, 1.47857666015625, 1.47857666015625, 1.46453857421875, 1.46453857421875, 1.45538330078125, 1.45538330078125, 1.4605712890625, 1.4605712890625, 1.4605712890625, 1.4605712890625, 1.44989013671875, 1.44989013671875, 1.42120361328125, 1.42120361328125, 1.43707275390625, 1.43707275390625, 1.43524169921875, 1.43524169921875, 1.43524169921875, 1.43524169921875, 1.3970947265625, 1.3970947265625, 1.4208984375, 1.4208984375, 1.4105224609375, 1.4105224609375, 1.4105224609375, 1.4105224609375, 1.37939453125, 1.37939453125, 1.40594482421875, 1.40594482421875, 1.4178466796875, 1.4178466796875, 1.4178466796875, 1.4178466796875, 1.370849609375, 1.370849609375, 1.397705078125, 1.397705078125, 1.42303466796875, 1.42303466796875]",0.3532032752592607,0.3487475958518287,accepted,1.3378492998890579,1.6876662999857217
pgACC-TUS-staircase,,1,2024-02-13_15h30.18.174,None,06,,,-0.03265380859375,2.891453334263393,2.8120930989583335,2.89642333984375,2.854258219401042,2.886912027994792,25,30,14,0,230,9,6,0,"[]",0.3982185195343227,1.390534703999883,rejected,1.1932848000433296,0
pgACC-TUS-staircase,,1,2024-02-13_15h30.18.174,None,06,,,-0.03265380859375,2.891453334263393,2.8120930989583335,2.89642333984375,2.854258219401042,2.886912027994792,26,14,22,0,230,6,7,0,"[]",0.3982185195343227,-0.3358667032356166,rejected,4.014094999991357,0
pgACC-TUS-staircase,,1,2024-02-13_15h30.18.174,None,06,,,-0.03265380859375,2.891453334263393,2.8120930989583335,2.89642333984375,2.854258219401042,2.886912027994792,27,22,12,22,252,7,5,7.527130815973768,"[0.04241943359375, 0.04241943359375, 0.04241943359375, 0.04150390625, 0.04150390625, 0.04150390625, 0.0421142578125, 0.04241943359375, 0.04150390625, 0.04150390625, 0.04150390625, 0.04241943359375, 0.0421142578125, 0.04150390625, 0.04150390625, 0.04150390625, 0.042724609375, 0.04302978515625, 0.04302978515625, 0.04302978515625, 0.0439453125, 0.05401611328125, 0.0628662109375, 0.0628662109375, 0.072021484375, 0.0811767578125, 0.1068115234375, 0.17181396484375, 0.17181396484375, 0.2392578125, 0.3143310546875, 0.53253173828125, 0.745849609375, 0.745849609375, 0.99700927734375, 1.19049072265625, 1.32904052734375, 1.4947509765625, 1.4947509765625, 1.59576416015625, 1.663818359375, 1.7333984375, 1.7864990234375, 1.7864990234375, 1.81396484375, 1.8426513671875, 1.9158935546875, 1.9158935546875, 1.9329833984375, 1.92108154296875, 1.937255859375, 1.94915771484375, 1.94915771484375, 1.9390869140625, 1.929931640625, 1.95404052734375, 1.95404052734375, 1.943359375, 1.9500732421875, 1.95404052734375, 1.9580078125, 1.9580078125, 1.94000244140625, 1.97967529296875, 2.0074462890625, 2.0074462890625, 2.0074462890625, 2.0074462890625, 2.03216552734375, 2.03216552734375, 2.07427978515625, 2.07427978515625, 2.12493896484375, 2.12493896484375, 2.2320556640625, 2.2320556640625, 2.2320556640625, 2.2320556640625, 2.227783203125, 2.227783203125, 2.25128173828125, 2.25128173828125, 2.3016357421875, 2.3016357421875, 2.29217529296875, 2.29217529296875, 2.29217529296875, 2.29217529296875, 2.29766845703125, 2.29766845703125, 2.31353759765625, 2.31353759765625, 2.32574462890625, 2.32574462890625, 2.32574462890625, 2.32574462890625, 2.33428955078125, 2.33428955078125, 2.29827880859375, 2.29827880859375, 2.28302001953125, 2.28302001953125, 2.2625732421875, 2.2625732421875, 2.2625732421875, 2.2625732421875, 2.2625732421875, 2.2625732421875, 2.265625, 2.265625, 2.27264404296875, 2.27264404296875, 2.26348876953125, 2.26348876953125, 2.26348876953125, 2.26348876953125, 2.2637939453125, 2.2637939453125, 2.291259765625, 2.291259765625, 2.2894287109375, 2.2894287109375, 2.2894287109375, 2.2894287109375, 2.26287841796875, 2.26287841796875, 2.25738525390625, 2.25738525390625, 2.29888916015625, 2.29888916015625, 2.281494140625, 2.281494140625, 2.281494140625, 2.281494140625, 2.265625, 2.265625, 2.29248046875, 2.29248046875, 2.26409912109375, 2.26409912109375, 2.26409912109375, 2.26409912109375, 2.2418212890625, 2.2418212890625, 2.225341796875, 2.225341796875, 2.2125244140625, 2.2125244140625, 2.213134765625, 2.213134765625, 2.213134765625, 2.213134765625, 2.215576171875, 2.215576171875, 2.18597412109375, 2.18597412109375, 2.166748046875, 2.166748046875, 2.1661376953125, 2.1661376953125, 2.1661376953125, 2.1661376953125, 2.12677001953125, 2.12677001953125, 2.08282470703125, 2.08282470703125, 2.09930419921875, 2.09930419921875, 2.09930419921875, 2.09930419921875, 2.10723876953125, 2.10723876953125, 2.09381103515625, 2.09381103515625, 2.07916259765625, 2.07916259765625, 2.1331787109375, 2.1331787109375, 2.1331787109375, 2.1331787109375, 2.2052001953125, 2.2052001953125, 2.17559814453125, 2.17559814453125, 2.1484375, 2.1484375]",0.3982185195343227,2.4872925428181887,accepted,1.4267537998966873,2.060967900091782
pgACC-TUS-staircase,,1,2024-02-13_15h30.18.174,None,06,,,-0.03265380859375,2.891453334263393,2.8120930989583335,2.89642333984375,2.854258219401042,2.886912027994792,28,12,18,12,264,5,7,5.309620970472405,"[0.04730224609375, 0.04730224609375, 0.04730224609375, 0.04730224609375, 0.04730224609375, 0.04730224609375, 0.04730224609375, 0.04730224609375, 0.04730224609375, 0.04730224609375, 0.04730224609375, 0.04730224609375, 0.04730224609375, 0.047607421875, 0.05706787109375, 0.05828857421875, 0.05828857421875, 0.05523681640625, 0.050048828125, 0.0494384765625, 0.048828125, 0.048828125, 0.04669189453125, 0.0469970703125, 0.04791259765625, 0.0518798828125, 0.0518798828125, 0.06500244140625, 0.0738525390625, 0.08026123046875, 0.08026123046875, 0.10009765625, 0.11260986328125, 0.128173828125, 0.1727294921875, 0.1727294921875, 0.21759033203125, 0.27313232421875, 0.41473388671875, 0.57037353515625, 0.57037353515625, 0.714111328125, 0.9136962890625, 1.08489990234375, 1.17431640625, 1.17431640625, 1.27532958984375, 1.34368896484375, 1.4434814453125, 1.4434814453125, 1.5576171875, 1.5576171875, 1.5576171875, 1.5576171875, 1.57958984375, 1.57958984375, 1.57073974609375, 1.57073974609375, 1.5765380859375, 1.5765380859375, 1.57470703125, 1.57470703125, 1.57470703125, 1.57470703125, 1.571044921875, 1.571044921875, 1.572265625, 1.572265625, 1.5826416015625, 1.5826416015625, 1.5826416015625, 1.5826416015625, 1.58843994140625, 1.58843994140625, 1.61224365234375, 1.61224365234375, 1.62353515625, 1.62353515625, 1.60919189453125, 1.60919189453125, 1.60919189453125, 1.60919189453125, 1.58966064453125, 1.58966064453125, 1.5826416015625, 1.5826416015625, 1.59088134765625, 1.59088134765625, 1.585693359375, 1.585693359375, 1.585693359375, 1.585693359375, 1.57989501953125, 1.57989501953125, 1.588134765625, 1.588134765625, 1.58233642578125, 1.58233642578125, 1.58233642578125, 1.58233642578125, 1.5771484375, 1.5771484375, 1.56982421875, 1.56982421875, 1.561279296875, 1.561279296875, 1.561279296875, 1.561279296875, 1.551513671875, 1.551513671875, 1.54937744140625, 1.54937744140625, 1.55059814453125, 1.55059814453125, 1.55059814453125, 1.55059814453125, 1.56219482421875, 1.56219482421875, 1.55517578125, 1.55517578125, 1.563720703125, 1.563720703125, 1.5740966796875, 1.5740966796875, 1.5740966796875, 1.5740966796875, 1.56951904296875, 1.56951904296875, 1.5533447265625, 1.5533447265625, 1.56707763671875, 1.56707763671875, 1.56707763671875, 1.56707763671875, 1.58447265625, 1.58447265625, 1.56890869140625, 1.56890869140625, 1.5631103515625, 1.5631103515625, 1.5631103515625, 1.5631103515625, 1.56280517578125, 1.56280517578125, 1.5496826171875, 1.5496826171875, 1.5557861328125, 1.5557861328125, 1.5618896484375, 1.5618896484375, 1.5618896484375, 1.5618896484375, 1.539306640625, 1.539306640625, 1.524658203125, 1.524658203125, 1.5386962890625, 1.5386962890625, 1.52923583984375, 1.52923583984375, 1.52923583984375, 1.52923583984375, 1.50115966796875, 1.50115966796875, 1.53289794921875, 1.53289794921875, 1.53961181640625, 1.53961181640625, 1.5155029296875, 1.5155029296875]",0.3982185195343227,2.044537011641932,accepted,2.326573600061238,1.7817207998596132
pgACC-TUS-staircase,,1,2024-02-13_15h30.18.174,None,06,,,-0.03265380859375,2.891453334263393,2.8120930989583335,2.89642333984375,2.854258219401042,2.886912027994792,29,18,5,0,264,7,4,0,"[]",0.3982185195343227,-1.5127074571818113,rejected,1.5813589000608772,0
pgACC-TUS-staircase,,1,2024-02-13_15h30.18.174,None,06,,,-0.03265380859375,2.891453334263393,2.8120930989583335,2.89642333984375,2.854258219401042,2.886912027994792,30,5,16,0,264,4,6,0,"[]",0.3982185195343227,-1.371496312549163,rejected,1.7357116998173296,0
pgACC-TUS-staircase,,1,2024-02-13_15h30.18.174,None,06,,,-0.03265380859375,2.891453334263393,2.8120930989583335,2.89642333984375,2.854258219401042,2.886912027994792,31,16,12,16,280,6,5,6.387369246395922,"[0.03997802734375, 0.03997802734375, 0.0396728515625, 0.040283203125, 0.040283203125, 0.040283203125, 0.04058837890625, 0.03997802734375, 0.03997802734375, 0.040283203125, 0.03997802734375, 0.04058837890625, 0.0396728515625, 0.0396728515625, 0.0396728515625, 0.0396728515625, 0.0396728515625, 0.0396728515625, 0.04058837890625, 0.04241943359375, 0.0482177734375, 0.0482177734375, 0.05889892578125, 0.07171630859375, 0.09063720703125, 0.1104736328125, 0.1104736328125, 0.16357421875, 0.24078369140625, 0.36041259765625, 0.36041259765625, 0.516357421875, 0.67474365234375, 0.87921142578125, 0.87921142578125, 1.06048583984375, 1.15081787109375, 1.2451171875, 1.31805419921875, 1.31805419921875, 1.4105224609375, 1.46087646484375, 1.50970458984375, 1.50970458984375, 1.56097412109375, 1.57928466796875, 1.5997314453125, 1.651611328125, 1.651611328125, 1.68975830078125, 1.73492431640625, 1.73492431640625, 1.7584228515625, 1.7584228515625, 1.7584228515625, 1.7584228515625, 1.77398681640625, 1.77398681640625, 1.7645263671875, 1.7645263671875, 1.77520751953125, 1.77520751953125, 1.80755615234375, 1.80755615234375, 1.80755615234375, 1.80755615234375, 1.80572509765625, 1.80572509765625, 1.7822265625, 1.7822265625, 1.788330078125, 1.788330078125, 1.788330078125, 1.788330078125, 1.78741455078125, 1.78741455078125, 1.77276611328125, 1.77276611328125, 1.7681884765625, 1.7681884765625, 1.796875, 1.796875, 1.796875, 1.796875, 1.79168701171875, 1.79168701171875, 1.76239013671875, 1.76239013671875, 1.77581787109375, 1.77581787109375, 1.79779052734375, 1.79779052734375, 1.79779052734375, 1.79779052734375, 1.787109375, 1.787109375, 1.8023681640625, 1.8023681640625, 1.84722900390625, 1.84722900390625, 1.8377685546875, 1.8377685546875, 1.8377685546875, 1.8377685546875, 1.82098388671875, 1.82098388671875, 1.81640625, 1.81640625, 1.81304931640625, 1.81304931640625, 1.81304931640625, 1.81304931640625, 1.81915283203125, 1.81915283203125, 1.8206787109375, 1.8206787109375, 1.8084716796875, 1.8084716796875, 1.82098388671875, 1.82098388671875, 1.82098388671875, 1.82098388671875, 1.82525634765625, 1.82525634765625, 1.834716796875, 1.834716796875, 1.885986328125, 1.885986328125, 1.885986328125, 1.885986328125, 1.8560791015625, 1.8560791015625, 1.82769775390625, 1.82769775390625, 1.851806640625, 1.851806640625, 1.849365234375, 1.849365234375, 1.849365234375, 1.849365234375, 1.8231201171875, 1.8231201171875, 1.8536376953125, 1.8536376953125, 1.87103271484375, 1.87103271484375, 1.87774658203125, 1.87774658203125, 1.87774658203125, 1.87774658203125, 1.873779296875, 1.873779296875, 1.871337890625, 1.871337890625, 1.8548583984375, 1.8548583984375, 1.826171875, 1.826171875, 1.826171875, 1.826171875, 1.80908203125, 1.80908203125, 1.82525634765625, 1.82525634765625, 1.8218994140625, 1.8218994140625, 1.8218994140625, 1.8218994140625, 1.806640625, 1.806640625, 1.8194580078125, 1.8194580078125, 1.8231201171875, 1.8231201171875]",0.3982185195343227,1.6641332967643834,accepted,1.5605754000134766,1.8402153998613358
pgACC-TUS-staircase,,1,2024-02-13_15h30.18.174,None,06,,,-0.03265380859375,2.891453334263393,2.8120930989583335,2.89642333984375,2.854258219401042,2.886912027994792,32,12,18,12,292,5,7,5.418678831726571,"[0.0421142578125, 0.0421142578125, 0.0421142578125, 0.04119873046875, 0.04119873046875, 0.04180908203125, 0.04119873046875, 0.04119873046875, 0.04150390625, 0.04150390625, 0.04119873046875, 0.04119873046875, 0.04150390625, 0.0421142578125, 0.04241943359375, 0.04241943359375, 0.0421142578125, 0.04241943359375, 0.04119873046875, 0.0421142578125, 0.0421142578125, 0.0408935546875, 0.04241943359375, 0.04180908203125, 0.0421142578125, 0.0421142578125, 0.04302978515625, 0.0445556640625, 0.05706787109375, 0.05706787109375, 0.07598876953125, 0.1043701171875, 0.15380859375, 0.2215576171875, 0.2215576171875, 0.29876708984375, 0.4901123046875, 0.66864013671875, 0.66864013671875, 0.87249755859375, 1.0552978515625, 1.15386962890625, 1.2579345703125, 1.2579345703125, 1.3104248046875, 1.3916015625, 1.44073486328125, 1.44073486328125, 1.4794921875, 1.4794921875, 1.4794921875, 1.4794921875, 1.49139404296875, 1.49139404296875, 1.54388427734375, 1.54388427734375, 1.53533935546875, 1.53533935546875, 1.53533935546875, 1.53533935546875, 1.551513671875, 1.551513671875, 1.56280517578125, 1.56280517578125, 1.56829833984375, 1.56829833984375, 1.57562255859375, 1.57562255859375, 1.57562255859375, 1.57562255859375, 1.60064697265625, 1.60064697265625, 1.60919189453125, 1.60919189453125, 1.5972900390625, 1.5972900390625, 1.5972900390625, 1.5972900390625, 1.59820556640625, 1.59820556640625, 1.6064453125, 1.6064453125, 1.6009521484375, 1.6009521484375, 1.6009521484375, 1.6009521484375, 1.59698486328125, 1.59698486328125, 1.60919189453125, 1.60919189453125, 1.617431640625, 1.617431640625, 1.64825439453125, 1.64825439453125, 1.64825439453125, 1.64825439453125, 1.65374755859375, 1.65374755859375, 1.654052734375, 1.654052734375, 1.6387939453125, 1.6387939453125, 1.60736083984375, 1.60736083984375, 1.60736083984375, 1.60736083984375, 1.59088134765625, 1.59088134765625, 1.6015625, 1.6015625, 1.6082763671875, 1.6082763671875, 1.6082763671875, 1.6082763671875, 1.60125732421875, 1.60125732421875, 1.60614013671875, 1.60614013671875, 1.60491943359375, 1.60491943359375, 1.5850830078125, 1.5850830078125, 1.5850830078125, 1.5850830078125, 1.578369140625, 1.578369140625, 1.59149169921875, 1.59149169921875, 1.59027099609375, 1.59027099609375, 1.59027099609375, 1.59027099609375, 1.57501220703125, 1.57501220703125, 1.611328125, 1.611328125, 1.62200927734375, 1.62200927734375, 1.59423828125, 1.59423828125, 1.59423828125, 1.59423828125, 1.6015625, 1.6015625, 1.605224609375, 1.605224609375, 1.58782958984375, 1.58782958984375, 1.58782958984375, 1.58782958984375, 1.58447265625, 1.58447265625, 1.6064453125, 1.6064453125, 1.6009521484375, 1.6009521484375, 1.6009521484375, 1.6009521484375, 1.573486328125, 1.573486328125, 1.5740966796875, 1.5740966796875, 1.57196044921875, 1.57196044921875, 1.546630859375, 1.546630859375, 1.546630859375, 1.546630859375]",0.3982185195343227,2.044537011641932,accepted,1.5200891999993473,1.7532350001856685
pgACC-TUS-staircase,,1,2024-02-13_15h30.18.174,None,06,,,-0.03265380859375,2.891453334263393,2.8120930989583335,2.89642333984375,2.854258219401042,2.886912027994792,33,18,5,0,292,7,4,0,"[]",0.3982185195343227,-1.5127074571818113,rejected,2.1836088998243213,0
pgACC-TUS-staircase,,1,2024-02-13_15h30.18.174,None,06,,,-0.03265380859375,2.891453334263393,2.8120930989583335,2.89642333984375,2.854258219401042,2.886912027994792,34,5,22,5,297,4,8,4.705525954701783,"[0.04058837890625, 0.04058837890625, 0.04058837890625, 0.0408935546875, 0.0408935546875, 0.0408935546875, 0.04058837890625, 0.0408935546875, 0.0408935546875, 0.04119873046875, 0.04119873046875, 0.04058837890625, 0.04058837890625, 0.03997802734375, 0.04119873046875, 0.0408935546875, 0.04058837890625, 0.04058837890625, 0.0408935546875, 0.04119873046875, 0.040283203125, 0.040283203125, 0.040283203125, 0.04058837890625, 0.03997802734375, 0.0433349609375, 0.057373046875, 0.057373046875, 0.0531005859375, 0.04913330078125, 0.04638671875, 0.045166015625, 0.045166015625, 0.04486083984375, 0.04669189453125, 0.0677490234375, 0.0677490234375, 0.07415771484375, 0.10772705078125, 0.18341064453125, 0.2435302734375, 0.2435302734375, 0.33233642578125, 0.5560302734375, 0.72509765625, 0.93048095703125, 0.93048095703125, 1.1285400390625, 1.23748779296875, 1.23748779296875, 1.32659912109375, 1.32659912109375, 1.32659912109375, 1.32659912109375, 1.39678955078125, 1.39678955078125, 1.4215087890625, 1.4215087890625, 1.4874267578125, 1.4874267578125, 1.5191650390625, 1.5191650390625, 1.5191650390625, 1.5191650390625, 1.49627685546875, 1.49627685546875, 1.51885986328125, 1.51885986328125, 1.5350341796875, 1.5350341796875, 1.510009765625, 1.510009765625, 1.510009765625, 1.510009765625, 1.5191650390625, 1.5191650390625, 1.4971923828125, 1.4971923828125, 1.468505859375, 1.468505859375, 1.468505859375, 1.468505859375, 1.48834228515625, 1.48834228515625, 1.48529052734375, 1.48529052734375, 1.46453857421875, 1.46453857421875, 1.46453857421875, 1.46453857421875, 1.48468017578125, 1.48468017578125, 1.4739990234375, 1.4739990234375, 1.4801025390625, 1.4801025390625, 1.4935302734375, 1.4935302734375, 1.4935302734375, 1.4935302734375, 1.52587890625, 1.52587890625, 1.5582275390625, 1.5582275390625, 1.591796875, 1.591796875, 1.591796875, 1.591796875, 1.6180419921875, 1.6180419921875, 1.61590576171875, 1.61590576171875, 1.6192626953125, 1.6192626953125, 1.61529541015625, 1.61529541015625, 1.61529541015625, 1.61529541015625, 1.595458984375, 1.595458984375, 1.597900390625, 1.597900390625, 1.6009521484375, 1.6009521484375, 1.58447265625, 1.58447265625, 1.58447265625, 1.58447265625, 1.5582275390625, 1.5582275390625, 1.5478515625, 1.5478515625, 1.54937744140625, 1.54937744140625, 1.5380859375, 1.5380859375, 1.5380859375, 1.5380859375, 1.52618408203125, 1.52618408203125, 1.56829833984375, 1.56829833984375, 1.5582275390625, 1.5582275390625, 1.52374267578125, 1.52374267578125, 1.52374267578125, 1.52374267578125, 1.53076171875, 1.53076171875, 1.513671875, 1.513671875, 1.4886474609375, 1.4886474609375, 1.4886474609375, 1.4886474609375, 1.4801025390625, 1.4801025390625, 1.46820068359375, 1.46820068359375, 1.42242431640625, 1.42242431640625, 1.39495849609375, 1.39495849609375, 1.39495849609375, 1.39495849609375, 1.37725830078125, 1.37725830078125, 1.34307861328125, 1.34307861328125]",0.3566778355229941,-1.371496312549163,accepted,1.4051262999419123,1.7805579998530447
pgACC-TUS-staircase,,1,2024-02-13_15h30.18.174,None,06,,,-0.03265380859375,2.891453334263393,2.8120930989583335,2.89642333984375,2.854258219401042,2.886912027994792,35,22,14,22,319,8,7,8.694691448224244,"[0.0396728515625, 0.0396728515625, 0.0396728515625, 0.040283203125, 0.03997802734375, 0.03997802734375, 0.040283203125, 0.04547119140625, 0.04486083984375, 0.04486083984375, 0.04608154296875, 0.05096435546875, 0.0579833984375, 0.0579833984375, 0.06072998046875, 0.06378173828125, 0.0732421875, 0.0732421875, 0.10009765625, 0.12481689453125, 0.18096923828125, 0.18096923828125, 0.24505615234375, 0.46051025390625, 0.6744384765625, 0.6744384765625, 0.97808837890625, 1.197509765625, 1.40594482421875, 1.59881591796875, 1.59881591796875, 1.72637939453125, 1.80938720703125, 1.8963623046875, 1.8963623046875, 1.9207763671875, 1.99981689453125, 2.0269775390625, 2.02667236328125, 2.02667236328125, 2.0318603515625, 2.07763671875, 2.1246337890625, 2.1246337890625, 2.108154296875, 2.108154296875, 2.1844482421875, 2.1844482421875, 2.2100830078125, 2.2088623046875, 2.21649169921875, 2.2430419921875, 2.2430419921875, 2.29522705078125, 2.29522705078125, 2.36541748046875, 2.36541748046875, 2.38006591796875, 2.38006591796875, 2.38006591796875, 2.38006591796875, 2.371826171875, 2.371826171875, 2.3187255859375, 2.3187255859375, 2.33184814453125, 2.33184814453125, 2.35595703125, 2.35595703125, 2.35595703125, 2.35595703125, 2.39654541015625, 2.39654541015625, 2.3858642578125, 2.3858642578125, 2.37701416015625, 2.37701416015625, 2.40997314453125, 2.40997314453125, 2.40997314453125, 2.40997314453125, 2.43560791015625, 2.43560791015625, 2.4481201171875, 2.4481201171875, 2.415771484375, 2.415771484375, 2.43133544921875, 2.43133544921875, 2.43133544921875, 2.43133544921875, 2.43896484375, 2.43896484375, 2.40478515625, 2.40478515625, 2.39959716796875, 2.39959716796875, 2.3919677734375, 2.3919677734375, 2.3919677734375, 2.3919677734375, 2.3876953125, 2.3876953125, 2.35076904296875, 2.35076904296875, 2.36480712890625, 2.36480712890625, 2.37457275390625, 2.37457275390625, 2.37457275390625, 2.37457275390625, 2.35809326171875, 2.35809326171875, 2.3577880859375, 2.3577880859375, 2.34405517578125, 2.34405517578125, 2.3590087890625, 2.3590087890625, 2.3590087890625, 2.3590087890625, 2.34039306640625, 2.34039306640625, 2.3223876953125, 2.3223876953125, 2.35443115234375, 2.35443115234375, 2.36724853515625, 2.36724853515625, 2.36724853515625, 2.36724853515625, 2.28790283203125, 2.28790283203125, 2.2662353515625, 2.2760009765625, 2.2760009765625, 2.30804443359375, 2.30804443359375, 2.369384765625, 2.369384765625, 2.40142822265625, 2.40142822265625, 2.40997314453125, 2.40997314453125, 2.40997314453125, 2.40997314453125, 2.42828369140625, 2.42828369140625, 2.4261474609375, 2.4261474609375, 2.41180419921875, 2.41180419921875, 2.4127197265625, 2.4127197265625, 2.4127197265625, 2.4127197265625, 2.39471435546875, 2.39471435546875, 2.4078369140625, 2.4078369140625, 2.43896484375, 2.43896484375, 2.43896484375, 2.43896484375, 2.4267578125, 2.4267578125, 2.41424560546875, 2.41424560546875, 2.40234375, 2.40234375, 2.3651123046875, 2.3651123046875, 2.3394775390625, 2.3394775390625, 2.3394775390625, 2.3394775390625, 2.34100341796875, 2.34100341796875, 2.31689453125, 2.31689453125, 2.29522705078125, 2.29522705078125, 2.29034423828125, 2.29034423828125, 2.29034423828125, 2.29034423828125, 2.2735595703125, 2.24761962890625, 2.23236083984375, 2.19573974609375, 2.19573974609375, 2.15850830078125, 2.16796875, 2.14569091796875, 2.14569091796875, 2.11700439453125, 2.16644287109375, 2.20703125, 2.2314453125, 2.2314453125, 2.2296142578125, 2.22808837890625, 2.23114013671875, 2.24945068359375, 2.24945068359375, 2.2967529296875, 2.2967529296875, 2.3822021484375, 2.3822021484375, 2.44110107421875, 2.44110107421875, 2.44110107421875, 2.44110107421875, 2.4371337890625, 2.4371337890625, 2.4420166015625, 2.4420166015625, 2.4554443359375, 2.4554443359375, 2.4554443359375, 2.4554443359375, 2.44964599609375, 2.44964599609375, 2.4462890625, 2.4462890625, 2.47283935546875, 2.47283935546875, 2.47283935546875, 2.47283935546875, 2.47955322265625, 2.47955322265625, 2.47772216796875, 2.47772216796875, 2.470703125, 2.470703125, 2.470703125, 2.470703125, 2.4615478515625, 2.4615478515625, 2.4468994140625, 2.4468994140625, 2.4444580078125, 2.4444580078125, 2.43499755859375, 2.43499755859375, 2.43499755859375, 2.43499755859375, 2.42767333984375, 2.42767333984375, 2.43255615234375, 2.43255615234375, 2.427978515625, 2.427978515625, 2.427978515625, 2.427978515625, 2.4261474609375, 2.4261474609375, 2.4395751953125, 2.4395751953125, 2.43988037109375, 2.43988037109375, 2.4261474609375, 2.4261474609375, 2.4261474609375, 2.4261474609375, 2.435302734375, 2.435302734375, 2.4566650390625, 2.4566650390625, 2.44964599609375, 2.44964599609375, 2.45025634765625, 2.45025634765625, 2.45025634765625, 2.45025634765625, 2.47283935546875, 2.47283935546875, 2.48809814453125, 2.48809814453125, 2.49725341796875, 2.49725341796875, 2.49725341796875, 2.49725341796875, 2.5042724609375, 2.5042724609375, 2.50152587890625, 2.50152587890625, 2.4945068359375, 2.4945068359375, 2.4835205078125, 2.4835205078125, 2.4835205078125, 2.4835205078125, 2.50701904296875, 2.50701904296875, 2.48870849609375, 2.48870849609375, 2.4896240234375, 2.4896240234375, 2.4920654296875, 2.4920654296875, 2.4920654296875, 2.4920654296875, 2.49114990234375, 2.49114990234375, 2.4920654296875, 2.4920654296875, 2.4920654296875, 2.4920654296875, 2.4920654296875, 2.4920654296875, 2.4951171875, 2.4951171875, 2.4981689453125, 2.4981689453125, 2.50213623046875, 2.50213623046875, 2.50213623046875, 2.50213623046875, 2.513427734375, 2.513427734375, 2.52685546875, 2.52685546875, 2.49542236328125, 2.49542236328125, 2.481689453125, 2.481689453125, 2.481689453125, 2.481689453125]",0.31544169886162005,-0.8273814734716218,accepted,2.7730031001847237,3.3381433999165893
pgACC-TUS-staircase,,1,2024-02-13_15h30.18.174,None,06,,,-0.03265380859375,2.891453334263393,2.8120930989583335,2.89642333984375,2.854258219401042,2.886912027994792,36,14,27,0,319,7,9,0,"[]",0.31544169886162005,-1.4566432442193822,rejected,1.539850499946624,0
pgACC-TUS-staircase,,1,2024-02-13_15h30.18.174,None,06,,,-0.03265380859375,2.891453334263393,2.8120930989583335,2.89642333984375,2.854258219401042,2.886912027994792,37,27,4,0,319,9,4,0,"[]",0.3561044534638926,1.4492223922087746,rejected,1.5322428999934345,0
pgACC-TUS-staircase,,1,2024-02-13_15h30.18.174,None,06,,,-0.03265380859375,2.891453334263393,2.8120930989583335,2.89642333984375,2.854258219401042,2.886912027994792,38,4,6,4,323,4,4,5.706292210916477,"[0.0433349609375, 0.042724609375, 0.042724609375, 0.0433349609375, 0.0433349609375, 0.0433349609375, 0.0439453125, 0.0433349609375, 0.0433349609375, 0.04425048828125, 0.042724609375, 0.0439453125, 0.0439453125, 0.0439453125, 0.04302978515625, 0.04241943359375, 0.04241943359375, 0.042724609375, 0.042724609375, 0.0433349609375, 0.0469970703125, 0.06561279296875, 0.06561279296875, 0.068359375, 0.07415771484375, 0.0823974609375, 0.0823974609375, 0.09429931640625, 0.10955810546875, 0.11566162109375, 0.1226806640625, 0.1226806640625, 0.13641357421875, 0.14923095703125, 0.16815185546875, 0.16815185546875, 0.19775390625, 0.2447509765625, 0.36773681640625, 0.5511474609375, 0.5511474609375, 0.74920654296875, 1.011962890625, 1.1669921875, 1.1669921875, 1.31866455078125, 1.31866455078125, 1.31866455078125, 1.31866455078125, 1.45538330078125, 1.45538330078125, 1.53045654296875, 1.53045654296875, 1.56463623046875, 1.56463623046875, 1.56463623046875, 1.56463623046875, 1.60552978515625, 1.60552978515625, 1.6387939453125, 1.6387939453125, 1.71112060546875, 1.71112060546875, 1.707763671875, 1.707763671875, 1.707763671875, 1.707763671875, 1.690673828125, 1.690673828125, 1.69342041015625, 1.69342041015625, 1.6412353515625, 1.6412353515625, 1.6412353515625, 1.6412353515625, 1.6168212890625, 1.6168212890625, 1.61102294921875, 1.61102294921875, 1.60736083984375, 1.60736083984375, 1.61468505859375, 1.61468505859375, 1.61468505859375, 1.61468505859375, 1.624755859375, 1.624755859375, 1.6119384765625, 1.6119384765625, 1.600341796875, 1.600341796875, 1.6168212890625, 1.6168212890625, 1.6168212890625, 1.6168212890625, 1.6217041015625, 1.6217041015625, 1.6033935546875, 1.6033935546875, 1.60247802734375, 1.60247802734375, 1.60247802734375, 1.60247802734375, 1.5972900390625, 1.5972900390625, 1.5899658203125, 1.5899658203125, 1.58935546875, 1.58935546875, 1.58660888671875, 1.58660888671875, 1.58660888671875, 1.58660888671875, 1.5728759765625, 1.5728759765625, 1.5667724609375, 1.5667724609375, 1.54144287109375, 1.54144287109375, 1.54144287109375, 1.54144287109375, 1.52069091796875, 1.52069091796875, 1.51336669921875, 1.51336669921875, 1.4862060546875, 1.4862060546875, 1.4691162109375, 1.4691162109375, 1.4691162109375, 1.4691162109375, 1.46820068359375, 1.46820068359375, 1.46270751953125, 1.46270751953125, 1.44927978515625, 1.44927978515625, 1.45355224609375, 1.45355224609375, 1.45355224609375, 1.45355224609375, 1.46759033203125, 1.46759033203125, 1.4910888671875, 1.4910888671875, 1.522216796875, 1.522216796875, 1.522216796875, 1.522216796875, 1.56005859375, 1.56005859375, 1.60980224609375, 1.60980224609375, 1.634521484375, 1.634521484375, 1.6497802734375, 1.6497802734375, 1.6497802734375, 1.6497802734375, 1.65618896484375, 1.65618896484375, 1.62994384765625, 1.62994384765625, 1.62872314453125, 1.62872314453125]",0.31571207725423395,-1.6976712554222813,accepted,2.8233166998252273,1.7060976999346167
pgACC-TUS-staircase,,1,2024-02-13_15h30.18.174,None,06,,,-0.03265380859375,2.891453334263393,2.8120930989583335,2.89642333984375,2.854258219401042,2.886912027994792,39,6,26,6,329,4,9,4.4745798955753155,"[0.04180908203125, 0.04180908203125, 0.042724609375, 0.042724609375, 0.0421142578125, 0.04241943359375, 0.04241943359375, 0.042724609375, 0.04150390625, 0.04150390625, 0.04302978515625, 0.04241943359375, 0.04302978515625, 0.04241943359375, 0.04241943359375, 0.0421142578125, 0.04180908203125, 0.0421142578125, 0.0421142578125, 0.042724609375, 0.04302978515625, 0.0421142578125, 0.0421142578125, 0.04241943359375, 0.04241943359375, 0.042724609375, 0.04119873046875, 0.04119873046875, 0.04150390625, 0.04119873046875, 0.04180908203125, 0.04180908203125, 0.04150390625, 0.04302978515625, 0.042724609375, 0.042724609375, 0.04241943359375, 0.04241943359375, 0.0421142578125, 0.0421142578125, 0.04241943359375, 0.04180908203125, 0.0421142578125, 0.0421142578125, 0.0421142578125, 0.04150390625, 0.04150390625, 0.04241943359375, 0.04180908203125, 0.04180908203125, 0.04150390625, 0.057373046875, 0.0567626953125, 0.0567626953125, 0.054931640625, 0.0537109375, 0.054931640625, 0.06805419921875, 0.06805419921875, 0.0799560546875, 0.10284423828125, 0.1312255859375, 0.1312255859375, 0.181884765625, 0.22003173828125, 0.2752685546875, 0.35400390625, 0.35400390625, 0.45928955078125, 0.638427734375, 0.83343505859375, 0.83343505859375, 0.98602294921875, 1.1737060546875, 1.1737060546875, 1.265869140625, 1.265869140625, 1.265869140625, 1.265869140625, 1.29791259765625, 1.29791259765625, 1.3873291015625, 1.3873291015625, 1.47979736328125, 1.47979736328125, 1.5234375, 1.5234375, 1.5234375, 1.5234375, 1.54998779296875, 1.54998779296875, 1.568603515625, 1.568603515625, 1.5399169921875, 1.5399169921875, 1.483154296875, 1.483154296875, 1.483154296875, 1.483154296875, 1.4654541015625, 1.4654541015625, 1.478271484375, 1.478271484375, 1.44256591796875, 1.44256591796875, 1.431884765625, 1.431884765625, 1.431884765625, 1.431884765625, 1.42730712890625, 1.42730712890625, 1.436767578125, 1.436767578125, 1.39495849609375, 1.39495849609375, 1.39495849609375, 1.39495849609375, 1.358642578125, 1.358642578125, 1.36444091796875, 1.36444091796875, 1.38092041015625, 1.38092041015625, 1.356201171875, 1.356201171875, 1.356201171875, 1.356201171875, 1.34979248046875, 1.34979248046875, 1.37420654296875, 1.37420654296875, 1.38031005859375, 1.38031005859375, 1.34765625, 1.34765625, 1.34765625, 1.34765625, 1.34918212890625, 1.34918212890625, 1.351318359375, 1.351318359375, 1.38885498046875, 1.38885498046875, 1.424560546875, 1.424560546875, 1.424560546875, 1.424560546875, 1.42791748046875, 1.42791748046875, 1.42181396484375, 1.42181396484375, 1.396484375, 1.396484375, 1.396484375, 1.396484375, 1.39801025390625, 1.39801025390625, 1.40380859375, 1.40380859375, 1.39892578125, 1.39892578125, 1.392822265625, 1.392822265625, 1.392822265625, 1.392822265625, 1.36810302734375, 1.36810302734375, 1.34979248046875, 1.34979248046875, 1.35101318359375, 1.35101318359375, 1.329345703125, 1.329345703125, 1.329345703125, 1.329345703125, 1.3104248046875, 1.3104248046875, 1.3104248046875, 1.3104248046875, 1.30615234375, 1.30615234375, 1.30615234375, 1.30615234375, 1.2982177734375, 1.2982177734375, 1.297607421875, 1.297607421875, 1.30859375, 1.30859375, 1.2982177734375, 1.2982177734375, 1.2982177734375, 1.2982177734375, 1.27716064453125, 1.27716064453125]",0.31571207725423395,0.9486067639322568,accepted,1.3391505000181496,2.203561400063336
pgACC-TUS-staircase,,1,2024-02-13_15h30.18.174,None,06,,,-0.03265380859375,2.891453334263393,2.8120930989583335,2.89642333984375,2.854258219401042,2.886912027994792,40,26,8,26,355,9,5,9.148030008731755,"[0.0396728515625, 0.06561279296875, 0.06561279296875, 0.0567626953125, 0.05218505859375, 0.0537109375, 0.0537109375, 0.05523681640625, 0.05767822265625, 0.05767822265625, 0.05889892578125, 0.067138671875, 0.07965087890625, 0.0921630859375, 0.0921630859375, 0.1080322265625, 0.1446533203125, 0.19134521484375, 0.19134521484375, 0.242919921875, 0.38848876953125, 0.693359375, 0.9832763671875, 0.9832763671875, 1.258544921875, 1.50787353515625, 1.75445556640625, 1.75445556640625, 1.90338134765625, 2.01446533203125, 2.12310791015625, 2.2442626953125, 2.2442626953125, 2.274169921875, 2.3516845703125, 2.41973876953125, 2.41973876953125, 2.44903564453125, 2.4249267578125, 2.447509765625, 2.4615478515625, 2.4615478515625, 2.46551513671875, 2.51983642578125, 2.55218505859375, 2.564697265625, 2.564697265625, 2.58941650390625, 2.58941650390625, 2.5927734375, 2.5927734375, 2.62237548828125, 2.62237548828125, 2.62237548828125, 2.62237548828125, 2.64923095703125, 2.64923095703125, 2.66143798828125, 2.66143798828125, 2.6409912109375, 2.6409912109375, 2.64739990234375, 2.64739990234375, 2.64739990234375, 2.64739990234375, 2.657470703125, 2.657470703125, 2.64801025390625, 2.64801025390625, 2.659912109375, 2.659912109375, 2.659912109375, 2.659912109375, 2.65838623046875, 2.65838623046875, 2.662353515625, 2.662353515625, 2.6617431640625, 2.6617431640625, 2.66265869140625, 2.66265869140625, 2.66265869140625, 2.66265869140625, 2.6678466796875, 2.6678466796875, 2.6654052734375, 2.6654052734375, 2.65380859375, 2.65380859375, 2.65380859375, 2.65380859375, 2.65838623046875, 2.65838623046875, 2.66265869140625, 2.66265869140625, 2.66204833984375, 2.66204833984375, 2.66204833984375, 2.66204833984375, 2.66204833984375, 2.66204833984375, 2.66387939453125, 2.66387939453125, 2.6617431640625, 2.6617431640625, 2.65411376953125, 2.65411376953125, 2.65411376953125, 2.65411376953125, 2.65167236328125, 2.65167236328125, 2.66448974609375, 2.66448974609375, 2.66143798828125, 2.66143798828125, 2.662353515625, 2.662353515625, 2.662353515625, 2.662353515625, 2.66082763671875, 2.66082763671875, 2.66021728515625, 2.66021728515625, 2.65716552734375, 2.65716552734375, 2.65716552734375, 2.65716552734375, 2.6458740234375, 2.6458740234375, 2.63946533203125, 2.63946533203125, 2.65228271484375, 2.65228271484375, 2.637939453125, 2.637939453125, 2.637939453125, 2.637939453125, 2.64190673828125, 2.64190673828125, 2.6611328125, 2.6611328125, 2.652587890625, 2.652587890625, 2.652587890625, 2.652587890625, 2.628173828125, 2.628173828125, 2.62664794921875, 2.62664794921875, 2.6214599609375, 2.6214599609375, 2.61566162109375, 2.61566162109375, 2.61566162109375, 2.61566162109375, 2.6116943359375, 2.6116943359375, 2.63519287109375, 2.63519287109375, 2.63885498046875, 2.63885498046875, 2.63885498046875, 2.63885498046875, 2.63458251953125, 2.63458251953125, 2.6220703125, 2.6220703125, 2.611083984375, 2.611083984375]",0.31571207725423395,0.4273217424070488,accepted,3.4578956000041217,1.7757999999448657
pgACC-TUS-staircase,,1,2024-02-13_15h30.18.174,None,06,,,-0.03265380859375,2.891453334263393,2.8120930989583335,2.89642333984375,2.854258219401042,2.886912027994792,41,8,23,8,363,5,9,5.5811964288896405,"[0.0506591796875, 0.0506591796875, 0.050048828125, 0.05035400390625, 0.05035400390625, 0.05035400390625, 0.050048828125, 0.05096435546875, 0.0494384765625, 0.0494384765625, 0.050048828125, 0.0506591796875, 0.05035400390625, 0.050048828125, 0.050048828125, 0.050048828125, 0.05096435546875, 0.0506591796875, 0.0506591796875, 0.05035400390625, 0.05096435546875, 0.0506591796875, 0.0506591796875, 0.0506591796875, 0.05126953125, 0.05218505859375, 0.06744384765625, 0.06744384765625, 0.07293701171875, 0.0830078125, 0.1019287109375, 0.1348876953125, 0.1348876953125, 0.1806640625, 0.22613525390625, 0.28717041015625, 0.42205810546875, 0.42205810546875, 0.54656982421875, 0.654296875, 0.7623291015625, 0.7623291015625, 0.89111328125, 0.93414306640625, 0.933837890625, 1.00677490234375, 1.00677490234375, 1.07086181640625, 1.07086181640625, 1.10565185546875, 1.10565185546875, 1.11724853515625, 1.1883544921875, 1.26678466796875, 1.31439208984375, 1.31439208984375, 1.3934326171875, 1.53106689453125, 1.53106689453125, 1.568603515625, 1.568603515625, 1.568603515625, 1.568603515625, 1.57867431640625, 1.57867431640625, 1.60736083984375, 1.60736083984375, 1.6082763671875, 1.6082763671875, 1.622314453125, 1.622314453125, 1.622314453125, 1.622314453125, 1.65252685546875, 1.65252685546875, 1.6717529296875, 1.6717529296875, 1.6717529296875, 1.6717529296875, 1.6241455078125, 1.6241455078125, 1.6241455078125, 1.6241455078125, 1.60614013671875, 1.60614013671875, 1.6156005859375, 1.6156005859375, 1.61865234375, 1.61865234375, 1.61865234375, 1.61865234375, 1.605224609375, 1.605224609375, 1.60247802734375, 1.60247802734375, 1.6192626953125, 1.6192626953125, 1.6180419921875, 1.6180419921875, 1.6180419921875, 1.6180419921875, 1.61590576171875, 1.61590576171875, 1.666259765625, 1.666259765625, 1.6448974609375, 1.6448974609375, 1.6448974609375, 1.6448974609375, 1.63604736328125, 1.63604736328125, 1.6656494140625, 1.6656494140625, 1.64031982421875, 1.64031982421875, 1.678466796875, 1.678466796875, 1.678466796875, 1.678466796875, 1.654052734375, 1.654052734375, 1.6314697265625, 1.6314697265625, 1.629638671875, 1.629638671875, 1.63177490234375, 1.63177490234375, 1.63177490234375, 1.63177490234375, 1.627197265625, 1.627197265625, 1.60675048828125, 1.60675048828125, 1.6015625, 1.6015625, 1.6015625, 1.6015625, 1.60064697265625, 1.60064697265625, 1.57867431640625, 1.57867431640625, 1.578369140625, 1.578369140625, 1.578369140625, 1.578369140625, 1.58447265625, 1.58447265625, 1.572265625, 1.572265625, 1.57135009765625, 1.57135009765625, 1.57073974609375, 1.57073974609375, 1.57073974609375, 1.57073974609375, 1.56463623046875, 1.56463623046875, 1.57135009765625, 1.57135009765625, 1.5765380859375, 1.5765380859375, 1.57073974609375, 1.57073974609375, 1.57073974609375, 1.57073974609375, 1.57135009765625, 1.57135009765625, 1.58660888671875, 1.58660888671875, 1.5826416015625, 1.5826416015625, 1.5826416015625, 1.5826416015625, 1.57928466796875, 1.57928466796875, 1.58477783203125, 1.58477783203125, 1.593017578125, 1.593017578125]",0.31571207725423395,0.10719806864415116,accepted,0.9294378000777215,1.9449503000359982
pgACC-TUS-staircase,,1,2024-02-13_15h30.18.174,None,06,,,-0.03265380859375,2.891453334263393,2.8120930989583335,2.89642333984375,2.854258219401042,2.886912027994792,42,23,12,0,363,9,6,0,"[]",0.31571207725423395,-2.572678257592951,rejected,1.351885600015521,0
