expName,curec_ID,trial_schedule,session_nr,date,start_time,end_time,duration,participant,age,gender,max_strength,block_number,trial_count,block_action_type,block_global_effort_state,block_attention_focus,trial_rating,trial_effort,trial_outcome_level,trial_actual_outcome,response,response_time,result,points,cumulative_points,effort_trace,effort_expended,effort_response_time,final_bonus_payment
reward-effort-pgACC-TUS,R88533/RE002,A_2,2,2024-07-18_16h12.23.731,2024-07-18 16:15:54,None,None,1,,,2.020314534505208,1,1,approach,shifted,heart,None,50,100,95,accept,1.472608499985654,success,95,95,"[3.428916693940234, 4.999874122000957, 6.993781626847261, 6.993781626847261, 10.014853603887113, 14.410513330480102, 16.978424510963976, 16.978424510963976, 21.28345207824577, 27.189647793358677, 30.981093124543698, 30.981093124543698, 36.28307444424864, 40.572996651645234, 45.3613957352534, 45.3613957352534, 47.476146119181294, 51.297802170136706, 55.84451549558169, 57.88373908008359, 57.88373908008359, 59.7416983459631, 60.61780921930466, 60.829284257697445, 60.829284257697445, 60.61780921930466, 60.300596661715474, 60.17975378263388, 60.17975378263388, 60.149543062863486, 60.255280582059875, 60.436544900682264, 60.436544900682264, 60.874600337353044, 61.055864655975434, 61.448604012990614, 61.448604012990614, 61.91687016943179, 62.64192744392136, 63.366984718410926, 63.59356511668891, 63.59356511668891, 63.39719543818132, 63.11019360036254, 63.75972407542611, 63.75972407542611, 64.10714735278569, 64.60562422899726, 65.19473326452004, 65.52705118199442, 65.52705118199442, 65.54215654187962, 65.66299942096121, 65.66299942096121, 65.60257798142042, 65.46662974245362, 64.99836358601245, 65.16452254474963, 65.16452254474963, 65.61768334130562, 65.7083155006168, 65.39110294302762, 65.39110294302762, 65.07389038543843, 64.78688854761965, 64.22799023186728, 64.22799023186728, 64.13735807255608, 64.33372775106368, 64.31862239117848, 64.18267415221169, 64.18267415221169, 64.78688854761965, 65.798947659928, 65.9046851791244, 65.9046851791244, 65.9046851791244, 65.7385262203872, 65.39110294302762, 65.39110294302762, 64.69625638830846, 64.54520278945647, 64.77178318773446]",63.66421921937778,1.3937564000079874,None
reward-effort-pgACC-TUS,R88533/RE002,A_2,2,2024-07-18_16h12.23.731,2024-07-18 16:15:54,None,None,1,,,2.020314534505208,1,2,approach,shifted,heart,None,70,40,38,reject,2.3025189000181854,None,0,95,"null",None,None,None
reward-effort-pgACC-TUS,R88533/RE002,A_2,2,2024-07-18_16h12.23.731,2024-07-18 16:15:54,None,None,1,,,2.020314534505208,1,3,approach,shifted,heart,None,60,100,119,accept,1.270167600014247,success,119,214,"[1.2537448704715393, 1.2688502303567384, 1.2688502303567384, 1.2839555902419377, 1.2839555902419377, 1.2839555902419377, 1.4803252687495283, 1.7371163867979156, 2.3111200624354877, 2.3111200624354877, 2.7944915787618645, 3.5950756526774255, 4.95455804234536, 4.95455804234536, 6.495304750635684, 9.788273205609126, 13.927141814153723, 13.927141814153723, 17.431585307519953, 26.736486996802704, 33.70005790387957, 33.70005790387957, 40.85999848946402, 48.125676594244865, 54.86266710304374, 54.86266710304374, 59.57553938722591, 63.865461594622495, 68.1855945217895, 75.13406006898116, 75.13406006898116, 77.71707660935023, 80.5719896276529, 81.84083985800963, 81.84083985800963, 83.10969008836638, 83.50242944538154, 84.3332242390675, 84.3332242390675, 85.72291734850585, 85.93439238689862, 83.78943128320033, 83.41179728607035, 83.41179728607035, 82.65652929181039, 81.67468089927243, 81.41788978122405, 81.41788978122405, 81.07046650386447, 80.5115681881121, 80.30009314971932, 80.30009314971932, 80.55688426776769, 80.4209360288009, 80.4058306689157, 80.4058306689157, 80.94962362478287, 81.14599330329047, 81.20641474283126, 81.20641474283126, 81.05536114397927, 80.78346466604567, 80.3454092293749, 79.78651091362254, 79.78651091362254, 78.71403036177338, 78.1249213262506, 78.1249213262506, 78.14002668613581, 78.1249213262506, 77.32433725233506, 76.1763299010599, 76.1763299010599, 76.0101709423227, 75.72316910450392, 75.08874398932555, 75.08874398932555, 75.01321718989956, 75.01321718989956, 74.81684751139197, 74.81684751139197, 74.71110999219557, 75.22469222829234, 75.46637798645554, 75.46637798645554, 75.34553510737393, 75.33042974748875, 75.48148334634074, 75.66274766496312]",79.0252998269487,1.4787794000003487,None
reward-effort-pgACC-TUS,R88533/RE002,A_2,2,2024-07-18_16h12.23.731,2024-07-18 16:15:54,None,None,1,,,2.020314534505208,1,4,approach,shifted,heart,None,80,80,74,accept,1.3200843000086024,success,74,288,"[6.616147629717278, 10.573751919639488, 10.573751919639488, 14.289670451398507, 20.784975202034193, 27.99023186727424, 27.99023186727424, 34.62148485687672, 38.97182850381411, 45.72392437249818, 45.72392437249818, 48.563732030915645, 54.877772462928945, 59.21301074998113, 59.21301074998113, 62.92892928174014, 66.0708441378616, 69.43933939226103, 69.43933939226103, 72.94378288562726, 75.48148334634074, 77.29412653256465, 79.63545731477055, 79.63545731477055, 80.67772714684929, 81.68978625915764, 82.58100249238439, 82.58100249238439, 83.77432592331515, 87.20324261725537, 89.33309836106847, 89.33309836106847, 91.22126834671838, 92.8979632939755, 93.29070265099068, 93.72875808766146, 93.72875808766146, 95.23929407618138, 95.46587447445937, 94.93718687847739, 94.93718687847739, 94.755922559855, 95.16376727675538, 93.66833664812066, 93.66833664812066, 92.8677525742051, 93.03391153294228, 93.13964905213868, 93.13964905213868, 92.83754185443469, 93.54749376903906, 94.19702424410264, 94.19702424410264, 93.54749376903906, 93.16985977190907, 93.57770448880946, 93.57770448880946, 93.68344200800585, 92.9734900934015, 92.17290601948592, 92.17290601948592, 91.67442914327435, 90.34515747337682, 87.29387477656655, 87.29387477656655, 86.719871100929, 87.00687293874778, 86.3573424636842, 86.3573424636842, 86.17607814506182, 87.80745701266333, 88.07935349059693, 87.88298381208934, 87.88298381208934, 88.5023035673825, 90.31494675360642, 90.93426650889958, 91.34211122579997, 91.34211122579997, 92.00674706074874, 92.6109614561567, 92.8677525742051, 92.8677525742051, 93.48707232949826, 94.25744568364343, 94.8616600790514, 94.8616600790514, 94.9976083180182, 95.16376727675538, 97.62594093804286, 97.62594093804286]",92.04767771334087,1.5148403999919537,None
reward-effort-pgACC-TUS,R88533/RE002,A_2,2,2024-07-18_16h12.23.731,2024-07-18 16:15:54,None,None,1,,,2.020314534505208,1,5,approach,shifted,heart,None,70,60,71,accept,2.1003818000026513,success,71,359,"[1.3292716698975355, 1.3745877495531333, 1.3745877495531333, 1.3443770297827349, 1.4047984693235318, 1.3896931094383325, 1.3896931094383325, 1.4350091890939303, 1.4954306286347274, 2.3111200624354877, 2.3111200624354877, 3.8216560509554145, 5.77024747614612, 7.250572744895647, 7.250572744895647, 11.313914554014252, 14.274565091513308, 18.035799702927925, 18.035799702927925, 23.367991742403266, 28.09596938647064, 33.201581027667984, 33.201581027667984, 37.89934795196496, 45.316079655597804, 48.20120339367086, 48.20120339367086, 55.08924750132172, 57.49099972306841, 59.90785730470029, 59.90785730470029, 62.26429344679138, 63.7899347951965, 64.96815286624205, 64.96815286624205, 65.9197905390096, 67.20374612925154, 67.83817124442992, 68.29133204098589, 68.29133204098589, 70.58734674353617, 72.77762392689007, 73.23078472344605, 73.23078472344605, 73.15525792402005, 74.4241081543768, 74.93769039047356, 74.93769039047356, 75.45127262657034, 77.65665516980943, 80.5115681881121, 80.5115681881121, 81.17620402306086, 81.94657737720603, 82.5961078522696, 82.5961078522696, 82.71695073135119, 83.18521688779236, 83.35137584652955, 83.35137584652955, 83.84985272274113, 84.7863850356235, 85.73802270839104, 85.73802270839104, 85.82865486770224, 83.59306160469274, 82.32421137433602, 82.15805241559882, 82.15805241559882, 82.03720953651722, 82.11273633594321, 82.44505425341761, 82.44505425341761, 82.83779361043278, 84.4238563983787, 86.719871100929, 86.719871100929, 87.14282117771457, 87.38450693587777, 87.36940157599255, 87.36940157599255, 87.32408549633696, 88.13977493013773, 88.42677676795651, 88.6533571662345, 88.6533571662345, 89.66541627854285, 90.05815563555804, 89.37841444072406, 89.37841444072406, 89.24246620175727, 89.03099116336448, 86.70476574104379, 86.70476574104379, 85.82865486770224, 85.46612623045745, 85.01296543390147, 85.01296543390147, 84.90722791470509, 84.6353314367715, 84.72596359608269, 84.72596359608269, 84.80149039550868, 83.59306160469274, 83.83474736285594, 84.4993831978047, 84.4993831978047, 83.83474736285594, 83.53264016515195, 83.45711336572596]",84.74131259080475,1.8306004999903962,None
reward-effort-pgACC-TUS,R88533/RE002,A_2,2,2024-07-18_16h12.23.731,2024-07-18 16:15:54,None,None,1,,,2.020314534505208,1,6,approach,shifted,heart,0.564,50,80,59,accept,1.9132648000086192,success,59,418,"[1.4803252687495283, 1.4501145489791296, 1.4501145489791296, 1.4501145489791296, 1.4501145489791296, 1.4501145489791296, 1.4501145489791296, 1.4199038292087311, 1.4199038292087311, 1.4803252687495283, 1.4954306286347274, 1.4652199088643287, 1.4652199088643287, 1.4652199088643287, 1.4350091890939303, 1.4199038292087311, 1.4199038292087311, 1.4350091890939303, 1.4501145489791296, 1.4803252687495283, 1.4803252687495283, 1.4652199088643287, 2.160066463583495, 3.8216560509554145, 3.8216560509554145, 5.196243800508548, 6.631252989602478, 9.108532010775159, 14.032879333350119, 14.032879333350119, 16.88779235165278, 21.691296795146148, 27.401122831751472, 27.401122831751472, 31.117041363510488, 34.81785453538431, 38.15613907001335, 38.15613907001335, 41.1167896075124, 42.97474887339192, 45.965610130661375, 45.965610130661375, 47.23446036101811, 47.70272651745929, 48.14078195413006, 48.50331059137485, 48.50331059137485, 48.98668210770122, 49.12263034666802, 49.87789834092798, 49.87789834092798, 51.97754336497068, 52.929181037738225, 54.63608670476575, 54.63608670476575, 55.87472621535209, 56.46383525087486, 57.007628206742034, 57.007628206742034, 58.12542483824677, 58.88069283250674, 59.95317338435589, 61.59965761184261, 61.59965761184261, 63.231036479444136, 64.43946527026007, 65.63278870119082, 65.63278870119082, 66.49379421464717, 67.79285516477431, 68.1855945217895, 68.1855945217895, 68.85023035673827, 69.69613051030942, 70.1492913068654, 70.1492913068654, 70.63266282319177, 71.01029682032176, 70.78371642204377, 69.43933939226103, 69.43933939226103, 68.39706956018227, 67.44543188741473, 66.64484781349917, 66.64484781349917, 66.50889957453238, 66.79590141235116, 66.78079605246596, 66.78079605246596, 67.09800861005515, 68.21580524155989, 69.36381259283505, 69.36381259283505, 69.30339115329424, 70.19460738652099, 70.45139850456938, 70.45139850456938, 69.968026988243, 69.65081443065382, 69.66591979053902, 69.42423403237584, 69.42423403237584, 68.48770171949347, 67.8079605246595, 67.56627476649632, 67.56627476649632, 67.14332468971074, 66.88653357166235, 66.88653357166235, 66.84121749200675, 66.69016389315476, 66.50889957453238, 66.41826741522118, 66.41826741522118, 66.43337277510638, 66.11616021751719, 65.9197905390096, 65.9197905390096, 66.0859494977468, 66.13126557740239, 65.95000125878, 66.0406334180912]",67.32531991284371,2.0316719000111334,None
reward-effort-pgACC-TUS,R88533/RE002,A_2,2,2024-07-18_16h12.23.731,2024-07-18 16:15:54,None,None,1,,,2.020314534505208,1,7,approach,shifted,heart,None,80,20,23,reject,1.8024753000063356,None,0,418,"null",None,None,None
reward-effort-pgACC-TUS,R88533/RE002,A_2,2,2024-07-18_16h12.23.731,2024-07-18 16:15:54,None,None,1,,,2.020314534505208,1,8,approach,shifted,heart,None,85,100,98,accept,1.5576386000029743,success,98,516,"[1.1933234309307421, 1.2235341507011408, 1.2084287908159412, 1.2084287908159412, 1.2235341507011408, 1.1782180710455428, 1.1782180710455428, 1.1631127111603436, 1.1782180710455428, 1.132901991389945, 1.132901991389945, 1.1631127111603436, 1.1782180710455428, 1.2537448704715393, 1.5407467082903252, 1.5407467082903252, 2.5679111804838755, 6.1025653936205035, 11.10243951562146, 11.10243951562146, 15.25641348405126, 23.277359583092068, 29.93882329246495, 29.93882329246495, 35.965861886659454, 42.989854233277114, 48.14078195413006, 48.14078195413006, 55.391354699025705, 59.938068024470695, 63.895672314392904, 66.52400493441758, 66.52400493441758, 68.23091060144509, 70.0888698673246, 73.00420432516805, 73.00420432516805, 76.04038166209311, 77.86813020820222, 80.1943556305229, 80.1943556305229, 81.55383802019084, 82.24868457491002, 82.65652929181039, 83.95559024193753, 83.95559024193753, 84.75617431585309, 84.5598046373455, 85.84376022758744, 85.84376022758744, 86.08544598575062, 85.05828151355708, 84.28790815941191, 84.28790815941191, 85.10359759321267, 85.23954583217946, 85.37549407114626, 85.37549407114626, 86.37244782356942, 87.98872133128573, 89.78625915762444, 89.78625915762444, 90.81342362981799, 91.38742730545557, 92.7318043352383, 92.7318043352383, 94.03086528536544, 96.47793358676772, 97.77699453689486, 97.77699453689486, 98.48694645149922, 98.06399637471365, 97.86762669620606, 97.86762669620606, 97.50509805896127, 97.39936053976488, 97.52020341884646, 97.56551949850206, 97.56551949850206, 98.33589285264723, 98.9552126079404, 99.92195564059315, 101.1303844314091, 101.1303844314091, 101.62886130762068, 101.32675410991669, 101.32675410991669, 101.0397522720979, 101.49291306865386, 101.58354522796506, 101.58354522796506, 101.47780770876868, 101.44759698899828, 101.90075778555425, 102.09712746406186, 102.09712746406186, 101.50801842853907, 101.41738626922788, 101.26633267037587, 101.26633267037587, 100.51106467611592, 100.67722363485312, 100.69232899473832, 100.69232899473832, 100.7829611540495, 100.34490571737874, 100.42043251680472, 100.39022179703431, 100.39022179703431, 100.17874675864154, 100.25427355806752, 100.29958963772314, 100.29958963772314, 100.29958963772314, 100.36001107726393, 100.22406283829714, 100.22406283829714, 99.69537524231517, 99.48390020392237, 99.58963772311876, 99.58963772311876, 99.30263588529998]",99.06095012713679,2.033092600002419,None
reward-effort-pgACC-TUS,R88533/RE002,A_2,2,2024-07-18_16h12.23.731,2024-07-18 16:15:54,None,None,1,,,2.020314534505208,1,9,approach,shifted,heart,None,55,20,20,reject,1.5149585999897681,None,0,516,"null",None,None,None
reward-effort-pgACC-TUS,R88533/RE002,A_2,2,2024-07-18_16h12.23.731,2024-07-18 16:15:54,None,None,1,,,2.020314534505208,1,10,approach,shifted,heart,None,75,60,67,accept,2.035016000008909,success,67,583,"[0.9818483925379524, 1.02716447219355, 0.9969537524231517, 0.9969537524231517, 0.9969537524231517, 1.0120591123083509, 1.02716447219355, 1.02716447219355, 1.0422698320787496, 1.072480551849148, 1.072480551849148, 1.072480551849148, 1.0573751919639487, 1.072480551849148, 1.0573751919639487, 1.0573751919639487, 1.1177966315047458, 1.4652199088643287, 2.598121900254274, 2.598121900254274, 4.576924045215378, 6.37446187155409, 10.951385916769468, 10.951385916769468, 14.470934770020898, 18.655119458221094, 23.941995418040836, 23.941995418040836, 29.19866065809018, 31.993152236852048, 35.51270109010348, 35.51270109010348, 39.0624606631253, 43.45812038971829, 47.3553032400997, 47.3553032400997, 49.84768762115758, 53.95634550993178, 56.87167996777524, 56.87167996777524, 57.52121044283881, 58.986430351703135, 60.27038594194507, 60.27038594194507, 60.874600337353044, 61.47881473276102, 62.64192744392136, 62.64192744392136, 63.56335439691851, 63.850356234737305, 64.33372775106368, 64.62072958888247, 64.62072958888247, 64.31862239117848, 64.06183127313008, 65.34578686337203, 65.34578686337203, 65.84426373958361, 66.0859494977468, 67.41522116764432, 67.41522116764432, 68.94086251604945, 72.00725057274491, 73.32141688275723, 73.32141688275723, 73.77457767931323, 74.92258503058837, 75.85911734347071, 75.85911734347071, 77.18838901336825, 79.45419299614814, 80.66262178696408, 80.66262178696408, 81.25173082248686, 81.94657737720603, 82.00699881674683, 82.11273633594321, 82.11273633594321, 82.83779361043278, 83.35137584652955, 82.85289897031798, 82.85289897031798, 83.39669192618516, 83.84985272274113, 83.72900984365954, 83.72900984365954, 83.94048488205232, 85.33017799149066, 85.88907630724303, 85.88907630724303, 85.94949774678383, 85.82865486770224, 86.84071398001059, 86.84071398001059, 88.00382669117093, 88.00382669117093, 88.27572316910451, 88.27572316910451, 88.6835678860049, 88.6684625261197, 88.71377860577529, 88.71377860577529, 89.27267692152768, 89.84668059716525, 89.74094307796885, 89.74094307796885, 89.62010019888726, 89.69562699831324, 90.04305027567283, 90.45089499257321, 90.45089499257321, 90.58684323154, 90.40557891291762, 90.58684323154, 90.58684323154, 90.8587397094736, 90.36026283326201, 89.83157523728003, 89.83157523728003, 90.04305027567283, 90.08836635532843, 89.45394124015006, 89.45394124015006, 88.95546436393849, 88.95546436393849, 88.87993756451249, 88.87993756451249, 88.36635532841571, 88.44188212784171, 88.62314644646409, 88.62314644646409]",87.07100881104721,2.1828589999931864,None
reward-effort-pgACC-TUS,R88533/RE002,A_2,2,2024-07-18_16h12.23.731,2024-07-18 16:15:54,None,None,1,,,2.020314534505208,1,11,approach,shifted,heart,None,70,60,65,reject,2.2738894000067376,None,0,583,"null",None,None,None
reward-effort-pgACC-TUS,R88533/RE002,A_2,2,2024-07-18_16h12.23.731,2024-07-18 16:15:54,None,None,1,,,2.020314534505208,1,12,approach,shifted,heart,None,60,40,42,accept,2.319699000014225,success,42,625,"[0.9365323128823546, 0.9214269529971554, 0.9214269529971554, 1.0120591123083509, 1.6615895873719193, 3.0814934165806505, 3.0814934165806505, 5.5134563580977325, 8.126683618237205, 12.069182548274213, 12.069182548274213, 15.135570604969667, 19.062964175121476, 25.784849324035147, 25.784849324035147, 30.150298330857737, 35.165277812743895, 37.884242592079765, 37.884242592079765, 42.21948087913196, 46.554719166184135, 48.080360514589266, 48.080360514589266, 53.412552554064604, 56.19193877294128, 57.7175801213464, 57.7175801213464, 59.92296266458549, 61.6751844112686, 63.77482943531131, 63.77482943531131, 64.84730998716046, 65.9953173384356, 66.58442637395837, 66.58442637395837, 66.82611213212157, 66.79590141235116, 66.84121749200675, 66.84121749200675, 66.82611213212157, 66.49379421464717, 66.96206037108836, 66.96206037108836, 67.50585332695552, 67.76264444500391, 67.88348732408551, 68.0647516427079, 68.0647516427079, 68.44238563983788, 68.75959819742707, 70.72329498250298, 70.72329498250298, 72.17340953148211, 72.92867752574206, 72.88336144608645, 72.88336144608645, 73.41204904206845, 73.72926159965762, 73.74436695954282, 73.74436695954282, 73.63862944034642, 73.83499911885401, 73.88031519850962, 73.88031519850962, 73.62352408046122, 73.60841872057603, 73.63862944034642, 73.63862944034642, 73.06462576470885, 71.97703985297451, 71.47856297676293, 71.47856297676293, 70.78371642204377, 69.8471841091614, 69.69613051030942, 69.69613051030942, 70.119080587095, 70.81392714181416, 70.82903250169936, 72.1280934518265, 72.1280934518265, 72.97399360539765, 73.36673296241284, 74.3183706351804, 74.3183706351804, 75.23979758817755, 76.2065406208303, 76.2971727801415, 76.2971727801415, 76.5388585383047, 76.72012285692708, 76.55396389818988, 76.55396389818988, 76.58417461796029, 76.58417461796029, 76.67480677727147, 76.67480677727147, 76.72012285692708, 76.5388585383047, 76.5388585383047, 76.5388585383047, 76.49354245864909]",72.88311381723587,1.699287399998866,None
reward-effort-pgACC-TUS,R88533/RE002,A_2,2,2024-07-18_16h12.23.731,2024-07-18 16:15:54,None,None,1,,,2.020314534505208,1,13,approach,shifted,heart,None,80,80,98,accept,1.4773605999944266,success,98,723,"[3.0059666171546544, 4.229500767855795, 5.5134563580977325, 5.5134563580977325, 7.190151305354851, 11.434757433095845, 11.434757433095845, 14.697515168298885, 20.6490269630674, 26.298431560131924, 26.298431560131924, 31.14725208328089, 34.62148485687672, 38.14103371012815, 38.14103371012815, 46.07134764985776, 49.62110722287959, 56.26746557236727, 60.64801993907506, 60.64801993907506, 64.53009742957127, 67.9741194833967, 72.0525666524005, 72.0525666524005, 76.35759421968228, 77.86813020820222, 79.43908763626295, 79.43908763626295, 81.55383802019084, 82.17315777548401, 82.35442209410641, 82.35442209410641, 82.85289897031798, 84.2576974396415, 86.22139422471741, 86.22139422471741, 86.84071398001059, 88.16998564990813, 89.46904660003526, 89.46904660003526, 90.13368243498402, 91.05510938798118, 92.12758993983033, 92.12758993983033, 92.27864353868233, 92.5052239369603, 92.8677525742051, 92.8677525742051, 93.13964905213868, 93.16985977190907, 93.32091337076108, 93.32091337076108, 93.45686160972787, 93.42665088995746, 93.10943833236827, 93.04901689282748, 93.04901689282748, 92.7469096951235, 92.5052239369603, 92.52032929684552, 92.52032929684552, 92.56564537650111, 92.12758993983033, 91.88590418166714, 91.88590418166714, 91.96143098109314, 91.73485058281516, 91.67442914327435, 91.67442914327435, 91.82548274212634, 91.90100954155234, 91.64421842350396, 91.64421842350396, 91.26658442637398, 91.20616298683318, 91.35721658568517, 91.73485058281516, 91.73485058281516, 91.76506130258555, 91.71974522292994, 91.67442914327435, 91.67442914327435, 91.61400770373356, 91.55358626419276, 91.43274338511117, 91.43274338511117, 91.37232194557036, 91.32700586591477, 91.34211122579997, 91.34211122579997, 91.29679514614438, 91.14574154729237, 90.58684323154, 90.58684323154, 90.40557891291762]",91.42007437359453,1.5815727000008337,None
reward-effort-pgACC-TUS,R88533/RE002,A_2,2,2024-07-18_16h12.23.731,2024-07-18 16:15:54,None,None,1,,,2.020314534505208,1,14,approach,shifted,heart,None,90,40,41,reject,3.40514020001865,None,0,723,"null",None,None,None
reward-effort-pgACC-TUS,R88533/RE002,A_2,2,2024-07-18_16h12.23.731,2024-07-18 16:15:54,None,None,1,,,2.020314534505208,1,15,approach,shifted,heart,None,65,40,34,reject,1.67731850000564,None,0,723,"null",None,None,None
reward-effort-pgACC-TUS,R88533/RE002,A_2,2,2024-07-18_16h12.23.731,2024-07-18 16:15:54,None,None,1,,,2.020314534505208,1,16,approach,shifted,heart,0.678,75,40,35,reject,1.9621512000157963,None,0,723,"null",None,None,None
reward-effort-pgACC-TUS,R88533/RE002,A_2,2,2024-07-18_16h12.23.731,2024-07-18 16:15:54,None,None,1,,,2.020314534505208,1,17,approach,shifted,heart,None,95,80,91,accept,1.77617480000481,success,91,814,"[1.0573751919639487, 1.0573751919639487, 1.0422698320787496, 1.1480073512751443, 1.299060950127137, 1.299060950127137, 1.7371163867979156, 2.5377004607134768, 4.395659726592987, 4.395659726592987, 5.966617154653711, 7.552679942599634, 12.295762946552204, 12.295762946552204, 15.22620276428086, 22.612723748143303, 29.636716094760963, 29.636716094760963, 37.77850507288337, 44.71186526018983, 48.427783791948855, 48.427783791948855, 55.42156541879611, 57.974371239394785, 61.448604012990614, 61.448604012990614, 65.39110294302762, 68.38196420029709, 74.1220009566728, 74.1220009566728, 78.95571611993657, 83.35137584652955, 89.07630724302008, 89.07630724302008, 92.8828579340903, 96.13051030940814, 98.62289469046601, 98.62289469046601, 99.36305732484078, 99.72558596208556, 100.04279851967475, 100.28448427783793, 100.28448427783793, 100.39022179703431, 100.26937891795274, 99.86153420105236, 99.86153420105236, 99.55942700334836, 99.86153420105236, 100.90380403313111, 100.90380403313111, 101.2210165907203, 101.88565242566905, 102.55028826061783, 102.55028826061783, 102.8221847385514, 102.9128168978626, 103.04876513682939, 103.04876513682939, 103.0336597769442, 103.1545026560258, 103.2753455351074, 103.2753455351074, 103.38108305430379, 103.66808489212258, 103.57745273281138, 103.57745273281138, 103.56234737292618, 103.62276881246697, 103.63787417235217, 104.39314216661214, 104.39314216661214, 104.66503864454573, 104.81609224339772, 105.2994637597241, 105.2994637597241, 105.04267264167571, 104.60461720500493, 104.69524936431611, 104.69524936431611, 104.72546008408652, 104.61972256489011, 104.9218297625941, 104.9218297625941, 104.86140832305331, 104.13635104856375, 103.45660985372977, 103.41129377407418, 103.41129377407418, 103.42639913395939, 103.32066161476298, 103.2753455351074, 103.2753455351074, 103.3357669746482, 103.68319025200776, 103.57745273281138, 103.57745273281138, 103.32066161476298]",102.79879579421298,1.631891800003359,None
reward-effort-pgACC-TUS,R88533/RE002,A_2,2,2024-07-18_16h12.23.731,2024-07-18 16:15:54,None,None,1,,,2.020314534505208,1,18,approach,shifted,heart,None,65,60,62,accept,2.2356570000119973,success,62,876,"[1.02716447219355, 1.3292716698975355, 1.3292716698975355, 2.3413307822058864, 4.002920369577806, 4.002920369577806, 5.8004581959165185, 9.123637370660358, 13.549507817023743, 13.549507817023743, 17.476901387175552, 23.050779184814083, 27.975126507389042, 27.975126507389042, 32.41610231363763, 35.75438684826667, 38.08061227058735, 38.08061227058735, 40.875103849349216, 42.79348455476952, 45.46713325444979, 45.46713325444979, 47.2646710807885, 49.21326250597921, 52.71770599934544, 52.71770599934544, 56.10130661363007, 57.339946124216425, 59.243221469751525, 60.602703859419464, 60.602703859419464, 62.29450416656178, 65.05878502555325, 67.05269253039955, 67.05269253039955, 69.36381259283505, 73.32141688275723, 75.05853326955516, 75.05853326955516, 76.38780493945269, 77.32433725233506, 78.91040004028098, 78.91040004028098, 79.68077339442613, 80.54177890788249, 80.88920218524207, 80.88920218524207, 81.04025578409407, 81.17620402306086, 80.99493970443848, 80.99493970443848, 80.85899146547168, 80.5870949875381, 80.60220034742329, 80.60220034742329, 80.63241106719369, 80.61730570730849, 80.97983434455327, 80.97983434455327, 80.96472898466807, 80.66262178696408, 80.43604138868609, 80.43604138868609, 80.75325394627528, 80.72304322650488, 80.66262178696408, 80.66262178696408, 80.96472898466807, 81.11578258352007, 81.25173082248686, 81.25173082248686, 81.32725762191285, 81.19130938294606, 80.99493970443848, 80.99493970443848, 80.60220034742329, 80.4813574683417, 80.5719896276529, 80.5719896276529, 80.79857002593089, 80.91941290501248, 80.79857002593089, 80.79857002593089, 80.78346466604567, 80.75325394627528, 80.3605145892601, 80.3605145892601, 79.37866619672215, 78.72913572165858, 79.03124291936257, 79.03124291936257, 79.19740187809975, 79.30313939729615, 80.04330203167092, 80.04330203167092, 80.10372347121172, 79.80161627350772, 79.62035195488534]",80.05670194769812,1.6315840000170283,None
reward-effort-pgACC-TUS,R88533/RE002,A_2,2,2024-07-18_16h12.23.731,2024-07-18 16:15:54,None,None,1,,,2.020314534505208,1,19,approach,shifted,heart,None,85,100,101,accept,1.2582845000142697,success,101,977,"[0.966743032652753, 0.9516376727675537, 0.9516376727675537, 1.1026912716195465, 1.586062787945923, 1.586062787945923, 4.018025729463005, 7.62820674202563, 14.984517006117674, 14.984517006117674, 22.522091588832108, 31.479570000755274, 37.884242592079765, 37.884242592079765, 44.74207597996023, 49.183051786208814, 54.77203494373254, 54.77203494373254, 59.62085546688151, 63.805040155081706, 66.53911029430277, 72.0374612925153, 72.0374612925153, 76.4633317388787, 79.59014123511494, 81.13088794340526, 81.13088794340526, 82.08252561617282, 84.7863850356235, 88.12466957025252, 88.12466957025252, 90.31494675360642, 92.44480249741952, 94.28765640341382, 94.28765640341382, 96.85556758389771, 99.31774124518518, 100.58659147554192, 100.58659147554192, 101.29654339014628, 101.25122731049068, 101.96117922509504, 101.96117922509504, 101.71949346693185, 101.67417738727626, 102.45965610130663, 102.56539362050303, 102.56539362050303, 102.27839178268422, 101.99138994486545, 101.67417738727626, 101.67417738727626, 101.17570051106468, 100.75275043427911, 101.49291306865386, 101.49291306865386, 101.64396666750586, 101.0699629918683, 100.16364139875633, 100.16364139875633, 99.89174492082276, 99.75579668185595, 98.98542332771079, 98.98542332771079, 98.5775786108104, 98.41141965207323, 96.7498300647013, 96.7498300647013, 95.72266559250777, 95.31482087560738, 94.01575992548024, 92.53543465673071, 92.53543465673071, 91.04000402809598, 90.9191611490144, 90.96447722866998, 90.96447722866998, 91.44784874499636, 92.11248457994513, 92.8828579340903, 92.8828579340903, 93.04901689282748, 92.9432793736311, 92.9432793736311, 92.9432793736311, 93.04901689282748, 93.41154553007227, 93.86470632662824, 93.86470632662824, 94.10639208479144, 94.7710279197402, 95.85861383147454]",97.11409210390013,1.5317731999966782,None
reward-effort-pgACC-TUS,R88533/RE002,A_2,2,2024-07-18_16h12.23.731,2024-07-18 16:15:54,None,None,1,,,2.020314534505208,1,20,approach,shifted,heart,None,55,100,85,accept,1.3275378000107594,success,85,1062,"[0.9818483925379524, 1.4652199088643287, 2.779386218876665, 2.779386218876665, 5.55877243775333, 10.664384078950683, 10.664384078950683, 14.773041967724884, 20.226076886281817, 20.226076886281817, 28.42828730394502, 33.83600614284636, 39.0926713828957, 39.0926713828957, 44.40975806248584, 47.4157246796405, 53.699554391883396, 53.699554391883396, 57.61184260215001, 60.436544900682264, 63.246141839329326, 63.246141839329326, 65.66299942096121, 66.56932101407317, 67.30948364844794, 67.30948364844794, 68.29133204098589, 69.45444475214623, 70.25502882606179, 70.0133430678986, 70.0133430678986, 70.40608242491379, 71.02540218020695, 71.47856297676293, 71.47856297676293, 72.91357216585686, 73.15525792402005, 73.33652224264245, 73.33652224264245, 74.39389743460639, 74.89237431081797, 75.61743158530753, 75.61743158530753, 75.54190478588153, 75.55701014576674, 75.60232622542233, 75.60232622542233, 75.94974950278191, 75.91953878301152, 75.97996022255231, 75.97996022255231, 75.63253694519273, 75.23979758817755, 74.63558319276959, 73.48757584149443, 73.48757584149443, 71.93172377331891, 69.9529216283578, 69.9529216283578, 69.8471841091614, 69.90760554870221, 69.9982377080134, 70.23992346617659, 70.23992346617659, 70.23992346617659, 71.28219329825534, 71.28219329825534, 71.56919513607413, 70.84413786158457, 70.87434858135497, 70.69308426273257, 70.69308426273257, 70.64776818307698, 70.64776818307698, 71.08582361974774, 71.08582361974774, 72.47551672918608, 73.01930968505326, 73.56310264092043, 73.56310264092043, 73.60841872057603]",71.75219285665052,1.346752400015248,None
reward-effort-pgACC-TUS,R88533/RE002,A_2,2,2024-07-18_16h12.23.731,2024-07-18 16:15:54,None,None,1,,,2.020314534505208,1,21,approach,shifted,heart,None,90,20,20,reject,1.2946274999994785,None,0,1062,"null",None,None,None
reward-effort-pgACC-TUS,R88533/RE002,A_2,2,2024-07-18_16h12.23.731,2024-07-18 16:15:54,None,None,1,,,2.020314534505208,1,22,approach,shifted,heart,None,65,100,98,accept,1.6329406999866478,success,98,1160,"[0.8912162332267567, 0.8912162332267567, 0.8912162332267567, 0.8912162332267567, 0.9063215931119559, 0.9365323128823546, 0.9365323128823546, 0.9063215931119559, 0.9516376727675537, 1.072480551849148, 1.072480551849148, 1.1480073512751443, 1.2839555902419377, 1.5105359885199268, 1.5105359885199268, 2.5074897409430785, 4.561818685330179, 7.371415623977243, 7.371415623977243, 11.706653911029433, 16.555474434178397, 22.00850935273533, 27.446438911407068, 27.446438911407068, 31.691045039148065, 34.69701165630272, 37.26492283678659, 37.26492283678659, 40.965736008660414, 43.171118551899504, 45.52755469399059, 45.52755469399059, 46.82661564411773, 47.4459353994109, 48.382467712293256, 48.41267843206365, 48.41267843206365, 48.60904811057124, 51.05611641197352, 53.33702575463861, 53.33702575463861, 55.36114397925531, 56.901890687545645, 58.33689987663957, 58.33689987663957, 60.40633418091187, 62.234082727020976, 65.45152438256842, 65.45152438256842, 67.50585332695552, 68.72938747765667, 70.42118778479899, 70.42118778479899, 70.67797890284737, 70.42118778479899, 70.2248181062914, 70.19460738652099, 70.19460738652099, 71.52387905641852, 71.20666649882934, 71.93172377331891, 71.93172377331891, 72.68699176757887, 73.29120616298684, 73.00420432516805, 73.00420432516805, 73.03441504493846, 73.01930968505326, 72.4906220890713, 73.10994184436446, 73.10994184436446, 74.37879207472119, 75.19448150852195, 75.52679942599634, 75.52679942599634, 76.1763299010599, 76.4482263789935, 76.38780493945269, 76.38780493945269, 76.81075501623828, 77.83791948843182, 78.3666070844138, 78.3666070844138, 78.50255532338059, 78.86508396062537, 80.2245663502933, 80.2245663502933, 80.55688426776769, 80.60220034742329, 80.91941290501248, 80.87409682535687, 80.87409682535687, 80.63241106719369, 80.70793786661969, 80.84388610558648, 80.84388610558648, 80.87409682535687, 80.84388610558648, 81.19130938294606, 81.19130938294606, 81.62936481961684, 81.70489161904284, 81.67468089927243, 81.67468089927243, 82.06742025628762, 82.15805241559882, 81.82573449812442, 81.82573449812442, 82.44505425341761, 82.6716346516956, 82.12784169582842, 81.97678809697642, 81.97678809697642, 81.93147201732083, 81.34236298179806, 80.81367538581607, 80.81367538581607, 80.70793786661969, 80.99493970443848]",78.3916175983221,1.98099509999156,None
reward-effort-pgACC-TUS,R88533/RE002,A_2,2,2024-07-18_16h12.23.731,2024-07-18 16:15:54,None,None,1,,,2.020314534505208,1,23,approach,shifted,heart,None,55,20,21,reject,1.3106716999900527,None,0,1160,"null",None,None,None
reward-effort-pgACC-TUS,R88533/RE002,A_2,2,2024-07-18_16h12.23.731,2024-07-18 16:15:54,None,None,1,,,2.020314534505208,1,24,approach,shifted,heart,None,85,80,72,reject,1.5612773000029847,None,0,1160,"null",None,None,None
reward-effort-pgACC-TUS,R88533/RE002,A_2,2,2024-07-18_16h12.23.731,2024-07-18 16:15:54,None,None,1,,,2.020314534505208,1,25,approach,shifted,heart,0.448,55,40,39,reject,1.7008346999937203,None,0,1160,"null",None,None,None
reward-effort-pgACC-TUS,R88533/RE002,A_2,2,2024-07-18_16h12.23.731,2024-07-18 16:15:54,None,None,1,,,2.020314534505208,1,26,approach,shifted,heart,None,50,20,18,reject,1.5192640000022948,None,0,1160,"null",None,None,None
reward-effort-pgACC-TUS,R88533/RE002,A_2,2,2024-07-18_16h12.23.731,2024-07-18 16:15:54,None,None,1,,,2.020314534505208,1,27,approach,shifted,heart,None,75,100,104,accept,1.118683599983342,success,104,1264,"[2.5830165403690746, 4.743083003952569, 6.132776113390903, 6.132776113390903, 9.65232496664233, 14.04798469323532, 14.04798469323532, 17.46179602729035, 23.15651670401048, 23.15651670401048, 28.821026660960204, 33.60942574456837, 38.95672314392891, 38.95672314392891, 44.878024218927024, 49.394526824601606, 55.42156541879611, 58.48795347549156, 58.48795347549156, 62.09813448805419, 64.0769366330153, 65.24004934417563, 65.24004934417563, 66.46358349487677, 68.24601596133029, 72.1280934518265, 72.1280934518265, 74.87726895093276, 77.09775685405707, 78.59318748269179, 78.59318748269179, 80.26988242994891, 81.01004506432366, 81.49341658065005, 81.49341658065005, 82.65652929181039, 83.71390448377434, 84.83170111527907, 84.83170111527907, 87.68661413358174, 89.74094307796885, 90.63215931119561, 90.63215931119561, 90.42068427280282, 90.01283955590243, 89.54457339946126, 89.54457339946126, 88.87993756451249, 88.89504292439769, 88.87993756451249, 88.81951612497168, 88.81951612497168, 88.6684625261197, 87.95851061151532, 86.34223710379901, 86.34223710379901, 85.37549407114626, 83.84985272274113, 83.35137584652955, 83.35137584652955, 83.32116512675915, 83.44200800584075, 83.98580096170792, 83.98580096170792, 84.27280279952672, 84.6353314367715, 85.40570479091666, 85.23954583217946, 85.23954583217946, 85.23954583217946, 85.70781198862065, 86.40265854333981, 86.40265854333981, 87.47513909518896, 88.18509100979333, 88.87993756451249, 88.87993756451249, 88.97056972382367, 89.72583771808364, 90.5566325117696, 90.5566325117696, 90.51131643211401, 90.54152715188441, 90.28473603383603, 90.28473603383603, 90.14878779486922, 89.90710203670604, 89.71073235819844, 89.71073235819844, 89.71073235819844, 88.94035900405328, 88.20019636967852]",87.09032386139226,1.5232282000069972,None
reward-effort-pgACC-TUS,R88533/RE002,A_2,2,2024-07-18_16h12.23.731,2024-07-18 16:15:54,None,None,1,,,2.020314534505208,1,28,approach,shifted,heart,None,75,80,86,accept,2.1125111000146717,success,86,1350,"[3.2929684549734404, 3.2929684549734404, 5.55877243775333, 6.60104226983208, 9.471060648019941, 9.471060648019941, 13.141663100123363, 16.661211953374792, 16.661211953374792, 21.781928954457346, 28.080864026585438, 32.77863095088241, 32.77863095088241, 37.71808363334257, 41.539739684297984, 46.73598348480653, 49.33410538506081, 49.33410538506081, 54.454822386143356, 56.569572770071254, 57.98947659927999, 57.98947659927999, 61.41839329322022, 63.38209007829613, 65.49684046222403, 65.49684046222403, 68.07985700259309, 71.81088089423731, 74.60537247299918, 74.60537247299918, 76.5388585383047, 77.50560157095744, 79.92245915258933, 79.92245915258933, 81.01004506432366, 81.70489161904284, 83.03416328894036, 83.03416328894036, 84.80149039550868, 87.91319453185974, 88.91014828428288, 89.83157523728003, 89.83157523728003, 90.7681075501624, 91.41763802522597, 91.53848090430756, 91.53848090430756, 91.79527202235595, 92.41459177764911, 92.5807507363863, 92.5807507363863, 92.49011857707511, 92.47501321718991, 91.38742730545557, 91.38742730545557, 89.95241811636163, 89.19715012210168, 89.45394124015006, 89.62010019888726, 89.62010019888726, 89.80136451750964, 89.87689131693564, 89.90710203670604, 89.84668059716525, 89.84668059716525, 89.42373052037966, 89.00078044359408, 89.15183404244608, 89.15183404244608, 89.13672868256087, 89.06120188313487, 89.16693940233127, 89.16693940233127, 89.03099116336448, 88.4720928476121, 88.4720928476121, 88.4720928476121, 88.42677676795651, 87.95851061151532, 87.85277309231894, 87.85277309231894, 88.27572316910451, 88.15488029002292, 88.23040708944892, 88.23040708944892, 88.23040708944892, 88.04914277082652, 87.39961229576296, 87.33919085622216, 87.33919085622216, 87.18813725737017, 86.04012990609503, 83.98580096170792, 83.98580096170792]",88.41386412160305,1.5660035000182688,None
reward-effort-pgACC-TUS,R88533/RE002,A_2,2,2024-07-18_16h12.23.731,2024-07-18 16:15:54,None,None,1,,,2.020314534505208,1,29,approach,shifted,heart,None,65,60,60,accept,2.340928799996618,success,60,1410,"[16.766949472571184, 22.506986228946907, 26.736486996802704, 29.86329649303895, 29.86329649303895, 33.851111502731555, 37.068553158279, 40.90531456911962, 40.90531456911962, 46.237506608594956, 47.55167291860729, 50.13468945897637, 50.13468945897637, 52.868759598197435, 55.814304775811294, 57.26441932479042, 57.26441932479042, 58.77495531331035, 60.54228241987867, 61.8111326502354, 61.8111326502354, 62.52108456483977, 64.39414919060448, 65.874474459354, 65.874474459354, 66.75058533269556, 69.59039299111302, 72.94378288562726, 74.28815991540999, 74.28815991540999, 76.56906925807509, 77.77749804889102, 78.06449988670981, 78.06449988670981, 78.91040004028098, 79.90735379270413, 80.05840739155612, 80.05840739155612, 79.80161627350772, 80.4058306689157, 80.69283250673448, 80.69283250673448, 80.2849877898341, 79.54482515545934, 79.06145363913296, 79.06145363913296, 78.06449988670981, 77.15817829359786, 77.77749804889102, 78.4723446036102, 78.4723446036102, 78.71403036177338, 79.75630019385213, 80.43604138868609, 80.43604138868609, 80.4209360288009, 80.84388610558648, 81.05536114397927, 81.05536114397927, 80.78346466604567, 80.73814858639008, 81.34236298179806, 81.34236298179806, 81.19130938294606, 81.08557186374966, 81.11578258352007, 81.11578258352007, 80.85899146547168, 80.3907253090305, 80.1490395508673, 79.18229651821456, 79.18229651821456, 77.67176052969464, 75.90443342312632, 75.90443342312632, 74.87726895093276, 73.18546864379046, 72.50572744895648, 72.0374612925153, 72.0374612925153, 71.55408977618892, 70.90455930112536, 68.66896603811587, 68.66896603811587, 68.54812315903428, 68.56322851891947, 67.71732836534832, 67.71732836534832, 66.64484781349917, 66.43337277510638, 66.0104226983208, 66.0104226983208, 64.81709926739005, 63.457616877722124, 62.12834520782459, 62.12834520782459, 60.814178897812255, 58.53326955514716, 56.70552100903805, 56.70552100903805, 54.72671886407694, 50.96548425266233, 49.047103547242024, 49.72684474207599, 49.72684474207599, 51.04101105208832, 49.968530500239176, 47.14382820170691, 47.14382820170691, 44.07744014501146, 41.16210568716801, 38.21656050955415, 35.43717429067748, 35.43717429067748, 33.594320384683165, 33.715163263764765, 35.920545807003855, 35.920545807003855, 45.02907781777902, 56.11641197351528, 60.768862818156656, 60.768862818156656, 65.39110294302762, 68.69917675788628, 73.88031519850962, 73.88031519850962, 77.35454797210545, 81.29704690214245, 83.47221872561114, 86.5537121421918, 86.5537121421918, 88.33614460864531, 90.16389315475443, 91.11553082752198, 91.11553082752198, 91.05510938798118, 91.25147906648877, 90.96447722866998, 90.96447722866998, 90.99468794844039, 90.5566325117696, 91.49316482465196, 91.49316482465196, 91.26658442637398, 90.51131643211401, 90.39047355303241, 90.39047355303241, 90.46600035245841, 89.72583771808364, 89.42373052037966, 89.42373052037966, 88.35124996853051, 88.36635532841571, 88.98567508370888, 88.57783036680851, 88.57783036680851, 87.67150877369654, 87.33919085622216, 86.719871100929, 86.719871100929, 85.46612623045745, 83.60816696457795, 83.18521688779236, 82.5205810528436, 82.5205810528436, 81.96168273709122, 81.59915409984644, 81.67468089927243, 81.67468089927243, 81.94657737720603, 81.50852194053525, 81.02515042420887, 81.02515042420887, 80.33030386948971, 80.04330203167092, 79.87714307293372, 79.95266987235972, 79.95266987235972, 80.63241106719369, 80.72304322650488, 80.96472898466807, 80.96472898466807, 81.04025578409407, 81.02515042420887, 81.28194154225726, 81.28194154225726]",85.2127460001251,3.098414000007324,None
reward-effort-pgACC-TUS,R88533/RE002,A_2,2,2024-07-18_16h12.23.731,2024-07-18 16:15:54,None,None,1,,,2.020314534505208,1,30,approach,shifted,heart,0.542,95,100,91,reject,2.286177100002533,None,0,1410,"null",None,None,None
reward-effort-pgACC-TUS,R88533/RE002,A_2,2,2024-07-18_16h12.23.731,2024-07-18 16:15:54,None,None,1,,,2.020314534505208,1,31,approach,shifted,heart,None,90,100,98,accept,1.8231235000130255,success,98,1508,"[1.0573751919639487, 1.072480551849148, 1.1026912716195465, 1.1782180710455428, 1.2839555902419377, 1.4047984693235318, 1.4047984693235318, 1.4803252687495283, 1.7824324664535134, 2.205382543239093, 2.718964779335868, 2.718964779335868, 3.3382845346290377, 4.712872284182171, 6.480199390750485, 6.480199390750485, 8.942373052037967, 13.232295259434556, 16.208051156818815, 21.46471639686816, 21.46471639686816, 27.808967548651854, 32.12910047581884, 36.962815639082606, 42.03821656050956, 46.902142443543724, 46.902142443543724, 52.083280884167074, 56.69041564915285, 59.53022330757031, 59.53022330757031, 62.792981042773356, 65.67810478084641, 68.47259635960827, 72.91357216585686, 72.91357216585686, 74.77153143173638, 75.93464414289672, 77.59623373026864, 78.78955716119937, 78.78955716119937, 79.77140555373732, 80.87409682535687, 81.44810050099444, 81.44810050099444, 81.88615593766522, 83.04926864882557, 84.3634349588379, 84.3634349588379, 87.17303189748496, 89.21225548198687, 90.39047355303241, 91.19105762694798, 91.19105762694798, 92.15780065960072, 92.76201505500869, 92.76201505500869, 92.76201505500869, 92.7469096951235, 92.49011857707511, 92.36927569799352, 92.36927569799352, 92.8677525742051, 93.23028121144988, 93.44175624984267, 93.60791520857987, 93.60791520857987, 93.69854736789105, 94.21212960398783, 95.43566375468897, 95.43566375468897, 96.68940862516051, 98.12441781425444, 99.24221444575917, 99.24221444575917, 100.7980665139347, 101.62886130762068, 102.44455074142142, 103.0638704967146, 103.0638704967146, 103.13939729614059, 103.21492409556659, 103.1847133757962, 103.1847133757962, 103.13939729614059, 103.01855441705901, 102.9883436972886, 102.9883436972886, 102.8977115379774, 102.74665793912541, 102.65602577981421, 102.65602577981421, 102.61070970015862, 101.94607386520987, 102.00649530475066, 102.00649530475066, 101.96117922509504, 101.97628458498025, 102.11223282394704, 102.11223282394704, 102.21797034314343, 102.11223282394704, 101.49291306865386, 101.0850683517535, 101.0850683517535, 100.46574859646033, 100.28448427783793, 99.78600740162635, 99.78600740162635, 98.7437375695476, 98.6531054102364, 98.8192643689736, 98.8192643689736, 98.8645804486292, 98.72863220966241, 98.59268397069562, 98.59268397069562, 97.95825885551724, 97.61083557815766, 98.56247325092522, 98.56247325092522, 99.61984844288916, 99.75579668185595]",99.87837296289156,2.0621162000170443,None
reward-effort-pgACC-TUS,R88533/RE002,A_2,2,2024-07-18_16h12.23.731,2024-07-18 16:15:54,None,None,1,,,2.020314534505208,1,32,approach,shifted,heart,None,65,20,19,reject,1.2211263999924995,None,0,1508,"null",None,None,None
reward-effort-pgACC-TUS,R88533/RE002,A_2,2,2024-07-18_16h12.23.731,2024-07-18 16:15:54,None,None,1,,,2.020314534505208,1,33,approach,shifted,heart,None,75,60,67,reject,2.1568247000104748,None,0,1508,"null",None,None,None
reward-effort-pgACC-TUS,R88533/RE002,A_2,2,2024-07-18_16h12.23.731,2024-07-18 16:15:54,None,None,1,,,2.020314534505208,1,34,approach,shifted,heart,None,90,100,114,accept,2.2875952000031248,success,114,1622,"[1.5558520681755246, 1.9485914251907055, 2.764280858991466, 2.764280858991466, 3.806550691070215, 4.652450844641375, 5.55877243775333, 5.55877243775333, 6.1780921930465, 7.341204904206844, 10.528435839983889, 10.528435839983889, 13.292716698975354, 15.180886684625264, 19.24422849374387, 19.24422849374387, 23.881573978500043, 29.39503033659777, 33.51879358525717, 33.51879358525717, 38.65461594622492, 43.44301502983309, 46.977669242969725, 46.977669242969725, 50.46700737645076, 55.75388333627049, 59.379169708718315, 59.379169708718315, 62.64192744392136, 65.75363158027241, 69.68102515042422, 74.1522116764432, 74.1522116764432, 76.52375317841948, 78.71403036177338, 80.75325394627528, 80.75325394627528, 81.88615593766522, 83.33627048664437, 87.64129805392614, 87.64129805392614, 89.27267692152768, 90.33005211349162, 91.71974522292994, 91.71974522292994, 93.54749376903906, 94.74081719996981, 95.45076911457416, 95.45076911457416, 97.14256942171649, 98.15462853402484, 97.79209989678006, 97.79209989678006, 97.80720525666526, 98.41141965207323, 98.68331613000682, 98.68331613000682, 100.39022179703431, 100.76785579416432, 101.19080587094989, 100.81317187381991, 100.81317187381991, 100.37511643714913, 101.0548576319831, 100.9189093930163, 100.9189093930163, 100.11832531910075, 100.42043251680472, 100.7074343546235, 100.7074343546235, 100.82827723370511, 100.94912011278669, 101.0095415523275, 101.0095415523275, 100.39022179703431, 100.22406283829714, 100.60169683542712, 100.60169683542712, 100.90380403313111, 101.1303844314091, 101.73459882681706, 101.73459882681706, 101.40228090934269, 101.1605951511795, 101.46270234888348, 101.46270234888348, 101.17570051106468, 101.0850683517535, 101.0699629918683, 101.0699629918683, 100.46574859646033, 100.52617003600113, 100.73764507439391, 100.73764507439391, 100.40532715691953, 99.90685028070794, 99.61984844288916, 99.61984844288916, 98.50205181138442, 98.50205181138442, 98.04889101482844, 98.04889101482844, 97.85252133632085, 96.9461997432089, 96.23624782860453, 96.23624782860453, 96.9159890234385]",99.56722331812783,1.7812587000080384,None
reward-effort-pgACC-TUS,R88533/RE002,A_2,2,2024-07-18_16h12.23.731,2024-07-18 16:15:54,None,None,1,,,2.020314534505208,1,35,approach,shifted,heart,None,85,80,82,accept,2.7297467999742366,success,82,1704,"[1.2537448704715393, 1.3443770297827349, 1.4199038292087311, 1.5407467082903252, 1.8126431862239119, 1.8126431862239119, 1.978802144961104, 2.250698622894691, 2.5830165403690746, 2.5830165403690746, 3.4138113340550342, 5.845774275572117, 9.788273205609126, 9.788273205609126, 12.688502303567384, 14.969411646232475, 18.972332015810277, 18.972332015810277, 25.981219002542737, 30.55814304775812, 35.60333324941467, 35.60333324941467, 41.90226832154277, 46.720878124921335, 49.15284106643841, 49.15284106643841, 55.78409405604089, 58.276478437098774, 61.856448729891, 65.33068150348683, 65.33068150348683, 68.36685884041188, 72.76251856700488, 75.57211550565194, 75.57211550565194, 77.32433725233506, 79.59014123511494, 80.60220034742329, 80.60220034742329, 81.16109866317565, 82.97374184939957, 84.90722791470509, 84.90722791470509, 87.76214093300774, 89.93731275647644, 91.50827018453715, 91.50827018453715, 92.7469096951235, 93.29070265099068, 94.22723496387303, 95.66224415296696, 95.66224415296696, 96.13051030940814, 96.70451398504571, 96.70451398504571, 97.36914981999448, 97.83741597643565, 97.71657309735406, 97.68636237758366, 97.68636237758366, 97.65615165781327, 97.91294277586164, 98.13952317413964, 98.13952317413964, 98.00357493517285, 98.45673573172883, 98.72863220966241, 98.72863220966241, 98.5775786108104, 98.21504997356564, 98.04889101482844, 98.04889101482844, 98.30568213287683, 98.33589285264723, 97.97336421540244, 97.97336421540244, 98.59268397069562, 98.62289469046601, 98.69842148989201, 98.69842148989201, 98.62289469046601, 97.91294277586164, 97.67125701769847, 98.18483925379523, 98.18483925379523, 98.60778933058081, 98.6531054102364, 98.39631429218802, 98.39631429218802, 98.06399637471365, 98.15462853402484, 99.33284660507039, 99.33284660507039, 99.42347876438158, 98.66821077012162, 97.74678381712447, 97.74678381712447, 97.38425517987967, 97.39936053976488, 97.20299086125729, 97.24830694091288, 97.24830694091288, 96.6289871856197, 95.39034767503337, 95.11845119709979, 95.11845119709979]",97.25927050857153,1.7654404000204522,None
reward-effort-pgACC-TUS,R88533/RE002,A_2,2,2024-07-18_16h12.23.731,2024-07-18 16:15:54,None,None,1,,,2.020314534505208,1,36,approach,shifted,heart,0.64,95,40,34,reject,1.5011957999959122,None,0,1704,"null",None,None,None
reward-effort-pgACC-TUS,R88533/RE002,A_2,2,2024-07-18_16h12.23.731,2024-07-18 16:15:54,None,None,1,,,2.020314534505208,1,37,approach,shifted,heart,None,80,40,43,reject,1.5711059999885038,None,0,1704,"null",None,None,None
reward-effort-pgACC-TUS,R88533/RE002,A_2,2,2024-07-18_16h12.23.731,2024-07-18 16:15:54,None,None,1,,,2.020314534505208,1,38,approach,shifted,heart,None,55,80,91,accept,2.985152700013714,success,91,1795,"[0.7401626343747642, 0.7401626343747642, 0.7250572744895648, 0.7250572744895648, 0.6948465547191662, 0.6948465547191662, 0.7401626343747642, 0.7401626343747642, 0.8761108733415575, 1.3896931094383325, 1.7069056670275171, 1.7069056670275171, 2.3413307822058864, 2.9304398177286575, 3.851866770725813, 3.851866770725813, 4.33523828705219, 4.727977644067371, 5.483245638327334, 5.483245638327334, 5.845774275572117, 6.2687243523576965, 6.721885148913674, 6.721885148913674, 8.610055134563583, 11.374335993555048, 13.972457893809324, 13.972457893809324, 17.205004909241968, 21.872561113768537, 27.461544271292265, 27.461544271292265, 31.05661992396969, 34.56106341733592, 38.110822990357754, 41.2678432063644, 41.2678432063644, 45.316079655597804, 46.84172100400293, 47.506356838951696, 47.506356838951696, 48.216308753556056, 48.86583922861963, 49.24347322574961, 49.24347322574961, 49.95342514035397, 51.509277208529504, 52.929181037738225, 52.929181037738225, 54.30376878729136, 55.96535837466329, 56.962312127086435, 56.962312127086435, 57.26441932479042, 58.48795347549156, 59.13748395055512, 59.13748395055512, 60.02870018378189, 61.08607537574584, 61.66007905138341, 61.66007905138341, 62.56640064449537, 62.324714886332174, 63.06487752070694, 63.06487752070694, 63.910777674278094, 64.0467259132449, 64.43946527026007, 65.14941718486445, 65.14941718486445, 65.58747262153521, 65.57236726165002, 64.84730998716046, 64.84730998716046, 63.54824903703332, 62.626822084036164, 62.0226076886282, 62.0226076886282, 62.08302912816899, 63.09508824047734, 63.9711991138189, 63.9711991138189, 65.40620830291283, 66.37295133556557, 67.12821932982554, 67.12821932982554, 67.8079605246595, 68.1251730822487, 68.89554643639386, 69.63570907076863, 69.63570907076863, 70.88945394124016, 72.71720248734927, 73.60841872057603, 73.60841872057603, 73.56310264092043, 73.48757584149443, 73.97094735782082, 73.97094735782082, 74.00115807759121, 74.0162634374764, 74.63558319276959, 74.63558319276959, 74.60537247299918, 74.48452959391759, 73.95584199793561, 73.89542055839482, 73.89542055839482, 74.137106316558, 74.33347599506558, 74.2428438357544, 74.2428438357544, 74.2428438357544, 74.2277384758692, 74.0766848770172, 74.0766848770172, 73.68394552000203, 73.09483648447926, 72.44530600941569, 72.44530600941569, 72.33956849021929, 72.27914705067849, 71.01029682032176, 71.01029682032176, 68.36685884041188, 67.8230658845447, 67.67201228569272, 67.67201228569272, 67.38501044787392, 67.24906220890713, 67.9741194833967, 68.38196420029709, 68.38196420029709, 68.83512499685305, 68.85023035673827, 68.62364995846028, 68.62364995846028, 68.47259635960827, 68.38196420029709, 68.42728027995268]",70.7889166279059,2.3317810999869835,None
reward-effort-pgACC-TUS,R88533/RE002,A_2,2,2024-07-18_16h12.23.731,2024-07-18 16:15:54,None,None,1,,,2.020314534505208,1,39,approach,shifted,heart,None,55,40,36,accept,1.9549562000029255,success,36,1831,"[0.9516376727675537, 0.9214269529971554, 0.9365323128823546, 0.9365323128823546, 0.9365323128823546, 0.9516376727675537, 1.02716447219355, 1.02716447219355, 1.299060950127137, 1.6011681478311224, 2.3262254223206873, 2.3262254223206873, 3.2023362956622448, 5.830668915686918, 7.537574582714434, 7.537574582714434, 11.389441353440247, 14.984517006117674, 14.984517006117674, 18.791067697187888, 24.047732937237235, 29.772664333727754, 33.805795423075956, 33.805795423075956, 38.82077490496212, 43.94149190604467, 47.55167291860729, 47.55167291860729, 50.07426801943558, 54.43971702625816, 57.173787165479226, 57.173787165479226, 58.51816419526196, 59.771909065733496, 61.58455225195741, 61.58455225195741, 63.48782759749252, 65.33068150348683, 66.31252989602478, 66.31252989602478, 67.26416756879233, 67.77774980488911, 68.1855945217895, 68.1855945217895, 69.56018227134263, 70.58734674353617, 71.05561289997735, 71.05561289997735, 72.3999899297601, 73.77457767931323, 74.49963495380278, 74.49963495380278, 76.32738349991189, 76.97691397497547, 77.65665516980943, 77.65665516980943, 77.70197124946503, 78.06449988670981, 77.95876236751342, 77.95876236751342, 77.68686588957982, 77.67176052969464, 76.87117645577906, 76.87117645577906, 76.4633317388787, 76.4482263789935, 76.11590846151911, 76.11590846151911, 75.14916542886635, 74.66579391253998, 73.41204904206845, 73.41204904206845, 73.03441504493846, 73.17036328390525, 73.92563127816521, 73.92563127816521, 74.71110999219557, 75.43616726668515, 75.40595654691474, 75.40595654691474, 75.43616726668515, 75.28511366783314, 75.30021902771836, 75.30021902771836, 75.39085118702954, 75.37574582714434, 75.31532438760354, 75.31532438760354, 75.30021902771836, 75.08874398932555, 74.66579391253998, 74.39389743460639, 74.39389743460639, 74.28815991540999, 74.40900279449158, 74.80174215150677, 74.80174215150677]",73.95658488448734,1.6158869999926537,None
reward-effort-pgACC-TUS,R88533/RE002,A_2,2,2024-07-18_16h12.23.731,2024-07-18 16:15:54,None,None,1,,,2.020314534505208,1,40,approach,shifted,heart,None,60,40,40,reject,1.7173256000096444,None,0,1831,"null",None,None,None
reward-effort-pgACC-TUS,R88533/RE002,A_2,2,2024-07-18_16h12.23.731,2024-07-18 16:15:54,None,None,1,,,2.020314534505208,1,41,approach,shifted,heart,None,50,40,32,accept,3.1154603000031784,success,32,1863,"[0.8761108733415575, 0.8761108733415575, 0.8761108733415575, 0.9063215931119559, 0.9063215931119559, 0.9063215931119559, 0.9063215931119559, 0.8610055134563582, 0.8610055134563582, 0.9063215931119559, 0.8912162332267567, 0.9516376727675537, 0.9516376727675537, 1.1177966315047458, 1.4199038292087311, 1.6011681478311224, 2.129855743813097, 2.129855743813097, 4.380554366707788, 6.434883311094889, 9.742957125953527, 9.742957125953527, 14.21414365197251, 16.4799476347524, 21.555348556179354, 21.555348556179354, 25.21084564839758, 28.730394501649002, 31.25298960247728, 31.25298960247728, 33.29221318697918, 37.068553158279, 40.73915561038242, 40.73915561038242, 44.01701870547066, 46.464087006872944, 48.01993907504847, 48.01993907504847, 50.60295561541754, 54.24334734775057, 57.11336572593842, 57.11336572593842, 58.68432315399915, 60.17975378263388, 61.87155408977619, 61.87155408977619, 62.50597920495456, 63.27635255909973, 64.19777951209689, 65.57236726165002, 65.57236726165002, 66.31252989602478, 66.87142821177716, 67.76264444500391, 67.76264444500391, 67.74753908511872, 68.1251730822487, 67.9136980438559, 67.9136980438559, 67.74753908511872, 67.9439087636263, 67.9439087636263, 67.8230658845447, 67.58138012638152, 67.49074796707033, 67.49074796707033, 67.35479972810353, 66.76569069258076, 66.38805669545079, 66.38805669545079, 66.37295133556557, 66.37295133556557, 66.44847813499157, 66.44847813499157, 66.59953173384356, 66.50889957453238, 66.55421565418797, 67.30948364844794, 67.30948364844794, 67.43032652752953, 67.32458900833313, 67.26416756879233, 67.26416756879233, 67.30948364844794, 67.09800861005515, 66.96206037108836, 66.96206037108836, 66.93184965131795, 66.50889957453238, 66.02552805820599, 66.02552805820599, 65.76873694015761, 65.57236726165002, 65.30047078371643, 65.30047078371643, 64.95304750635685, 64.74157246796406, 65.01346894589764, 65.01346894589764, 65.10410110520884, 65.01346894589764, 64.99836358601245, 64.99836358601245]",66.06341527234427,1.6993482999969274,None
reward-effort-pgACC-TUS,R88533/RE002,A_2,2,2024-07-18_16h12.23.731,2024-07-18 16:15:54,None,None,1,,,2.020314534505208,1,42,approach,shifted,heart,None,50,40,41,accept,2.4951462000026368,success,41,1904,"[5.709826036605323, 6.903149467536066, 8.821530172956372, 12.114498627929812, 12.114498627929812, 14.803252687495283, 17.446690667405154, 21.540243196294153, 25.739533244379555, 25.739533244379555, 28.111074746355836, 31.29830568213288, 34.16832406032074, 34.16832406032074, 37.31023891644219, 41.75121472269077, 45.63329221318699, 45.63329221318699, 47.4610407592961, 48.926260668160424, 51.902016565544685, 51.902016565544685, 54.364190226832164, 56.735731728808446, 58.09521411847638, 58.09521411847638, 59.50001258779991, 61.28244505425343, 63.48782759749252, 63.48782759749252, 64.51499206968607, 65.7385262203872, 67.26416756879233, 67.26416756879233, 68.71428211777146, 69.30339115329424, 70.79882178192896, 70.79882178192896, 71.78067017446692, 71.9468291332041, 71.50877369653334, 71.50877369653334, 73.06462576470885, 73.42715440195364, 72.2036202512525, 72.2036202512525, 71.11603433951815, 68.92575715616425, 67.15843004959594, 67.15843004959594, 66.85632285189196, 67.14332468971074, 67.23395684902194, 67.23395684902194, 68.54812315903428, 70.78371642204377, 70.79882178192896, 70.79882178192896, 70.07376450743939, 70.1039752272098, 70.0888698673246, 70.0888698673246, 68.89554643639386, 68.0949623624783, 68.0043302031671, 68.0043302031671, 67.40011580775914, 67.11311396994034, 67.11311396994034, 67.18864076936633, 67.18864076936633, 67.17353540948115, 67.20374612925154, 67.12821932982554, 67.12821932982554, 67.18864076936633, 66.56932101407317, 65.54215654187962, 65.54215654187962, 65.60257798142042, 65.66299942096121, 64.54520278945647, 64.54520278945647, 64.15246343244128, 64.27330631152289, 64.36393847083409, 64.25820095163768, 64.25820095163768]",67.7105065899163,1.4653020999976434,None
reward-effort-pgACC-TUS,R88533/RE002,A_2,2,2024-07-18_16h12.23.731,2024-07-18 16:15:54,None,None,1,,,2.020314534505208,1,43,approach,shifted,heart,None,70,80,94,accept,1.186903199995868,success,94,1998,"[11.570705672062639, 11.570705672062639, 14.908990206691678, 18.09622114246872, 18.09622114246872, 23.26225422320687, 28.171496185896633, 31.20767352282169, 31.20767352282169, 35.18038317262909, 37.82382115253897, 42.627325596032335, 46.70577276503614, 46.70577276503614, 48.68457490999724, 54.137609828554176, 56.88678532766044, 56.88678532766044, 59.197905390095926, 60.72354673850106, 62.64192744392136, 62.64192744392136, 65.37599758314244, 68.20069988167468, 72.47551672918608, 72.47551672918608, 75.01321718989956, 75.48148334634074, 77.11286221394225, 77.11286221394225, 80.1188288310969, 80.79857002593089, 81.53873266030564, 82.64142393192519, 82.64142393192519, 82.76226681100678, 82.62631857203999, 82.5205810528436, 82.5205810528436, 82.29400065456561, 82.27889529468041, 82.35442209410641, 82.35442209410641, 82.475264973188, 83.06437400871077, 83.32116512675915, 83.32116512675915, 83.54774552503714, 84.75617431585309, 86.58392286196221, 87.32408549633696, 87.32408549633696, 87.36940157599255, 87.36940157599255, 87.39961229576296, 87.39961229576296, 87.33919085622216, 88.15488029002292, 88.6835678860049, 88.6835678860049, 88.87993756451249, 89.15183404244608, 89.15183404244608, 88.6684625261197, 88.6684625261197, 87.85277309231894, 87.52045517484456, 87.44492837541856, 87.44492837541856, 86.25160494448781, 85.11870295309787, 84.4238563983787, 84.03111704136353, 84.03111704136353, 83.77432592331515, 83.21542760756276, 82.5054756929584, 82.5054756929584, 81.87105057778003, 81.40278442133885, 81.07046650386447, 81.07046650386447, 80.75325394627528, 80.4058306689157, 80.4964628282269, 80.4964628282269, 80.52667354799729, 80.94962362478287, 81.47831122076484]",83.91027416228192,1.4818276999867521,None
reward-effort-pgACC-TUS,R88533/RE002,A_2,2,2024-07-18_16h12.23.731,2024-07-18 16:15:54,None,None,1,,,2.020314534505208,1,44,approach,shifted,heart,0.746,90,60,58,reject,1.636434999993071,None,0,1998,"null",None,None,None
reward-effort-pgACC-TUS,R88533/RE002,A_2,2,2024-07-18_16h12.23.731,2024-07-18 16:15:54,None,None,1,,,2.020314534505208,1,45,approach,shifted,heart,None,80,100,83,accept,1.5988941000250634,success,83,2081,"[0.8761108733415575, 0.8156894338007604, 0.8156894338007604, 0.8156894338007604, 0.8156894338007604, 0.7703733541451626, 0.8156894338007604, 0.845900153571159, 0.845900153571159, 0.9365323128823546, 1.23863951058634, 1.4954306286347274, 1.6766949472571187, 1.6766949472571187, 1.978802144961104, 2.67364869968027, 4.365449006822588, 4.365449006822588, 6.4046725913244895, 9.455955288134742, 14.63709372875809, 14.63709372875809, 18.5644872989099, 23.71541501976285, 28.44339266383022, 28.44339266383022, 31.76657183857406, 36.52476020241183, 38.95672314392891, 44.439968782256244, 44.439968782256244, 48.63925883034164, 52.74791671911584, 56.282570932252476, 56.282570932252476, 59.90785730470029, 62.52108456483977, 65.58747262153521, 65.58747262153521, 71.41814153722214, 75.25490294806275, 77.92855164774302, 77.92855164774302, 80.43604138868609, 81.53873266030564, 82.03720953651722, 82.55079177261399, 82.55079177261399, 83.18521688779236, 84.01601168147832, 85.63228518919465, 85.63228518919465, 87.09750509805897, 87.77724629289294, 87.95851061151532, 87.95851061151532, 89.72583771808364, 90.26963067395081, 91.11553082752198, 91.59890234384835, 91.59890234384835, 91.84058810201154, 92.09737922005992, 91.90100954155234, 91.90100954155234, 91.78016666247075, 92.7922257747791, 92.83754185443469, 92.83754185443469, 92.85264721431989, 92.7015936154679, 92.42969713753432, 92.42969713753432, 91.55358626419276, 90.90405578912919, 90.82852898970319, 90.82852898970319, 90.73789683039199, 90.23941995418042, 89.78625915762444, 89.10651796279048, 89.10651796279048, 87.76214093300774, 83.80453664308554, 82.73205609123639, 82.73205609123639, 82.3091060144508, 81.53873266030564, 81.52362730042044, 81.59915409984644, 81.59915409984644, 82.00699881674683, 82.399738173762, 83.12479544825156, 83.12479544825156, 83.12479544825156, 83.66858840411874, 86.26671030437302, 86.26671030437302, 87.70171949346694, 88.6533571662345, 89.62010019888726, 89.62010019888726, 90.662370030966, 91.32700586591477, 91.73485058281516, 91.68953450315955, 91.68953450315955, 91.25147906648877, 91.20616298683318, 91.20616298683318, 91.22126834671838, 91.19105762694798, 91.11553082752198, 90.93426650889958, 90.93426650889958, 90.6925807507364, 90.96447722866998, 91.04000402809598, 91.04000402809598, 91.14574154729237, 91.11553082752198, 91.11553082752198, 91.11553082752198, 90.63215931119561, 90.20920923441003, 90.28473603383603, 90.28473603383603, 90.29984139372121, 89.69562699831324, 89.54457339946126, 89.54457339946126, 90.37536819314721, 90.8738450693588, 90.7076861106216, 90.7681075501624, 90.7681075501624, 90.84363434958838, 90.82852898970319, 90.4811057123436, 90.4811057123436, 90.43578963268801, 90.58684323154, 90.63215931119561, 90.63215931119561, 90.46600035245841, 90.40557891291762, 90.42068427280282, 90.42068427280282, 90.45089499257321, 90.17899851463963, 88.86483220462729, 88.21530172956372, 88.21530172956372, 88.6835678860049, 88.6533571662345, 88.5023035673825, 88.5023035673825, 88.5325142871529]",90.19264206550363,2.648279500019271,None
reward-effort-pgACC-TUS,R88533/RE002,A_2,2,2024-07-18_16h12.23.731,2024-07-18 16:15:54,None,None,1,,,2.020314534505208,1,46,approach,shifted,heart,None,90,80,77,reject,1.7358691999979783,None,0,2081,"null",None,None,None
reward-effort-pgACC-TUS,R88533/RE002,A_2,2,2024-07-18_16h12.23.731,2024-07-18 16:15:54,None,None,1,,,2.020314534505208,1,47,approach,shifted,heart,None,100,80,81,reject,1.6694541999895591,None,0,2081,"null",None,None,None
reward-effort-pgACC-TUS,R88533/RE002,A_2,2,2024-07-18_16h12.23.731,2024-07-18 16:15:54,None,None,1,,,2.020314534505208,1,48,approach,shifted,heart,None,65,80,97,accept,1.207828500017058,success,97,2178,"[0.7703733541451626, 0.8005840739155612, 0.8005840739155612, 0.8005840739155612, 0.8005840739155612, 0.8156894338007604, 0.8156894338007604, 0.8156894338007604, 0.8307947936859597, 0.8610055134563582, 1.0120591123083509, 1.0120591123083509, 1.3443770297827349, 1.9485914251907055, 3.4138113340550342, 3.4138113340550342, 5.634299237179326, 7.779260340877622, 13.20208453966416, 13.20208453966416, 16.162735077163216, 22.310616550439317, 27.00838347473629, 30.648775207069313, 30.648775207069313, 35.739281488381465, 38.18634978978375, 41.1167896075124, 41.1167896075124, 45.089499257319815, 47.17403892147731, 48.775207069308436, 48.775207069308436, 50.14979481886157, 52.89897031796783, 56.32788701190806, 56.32788701190806, 57.294630044560826, 58.744744593539956, 60.58759849953426, 60.58759849953426, 62.24918808690618, 64.68115102842327, 66.52400493441758, 67.9288034037411, 67.9288034037411, 68.89554643639386, 70.52692530399538, 71.82598625412253, 71.82598625412253, 72.62657032803807, 73.04952040482365, 72.43020064953049, 72.43020064953049, 72.43020064953049, 74.96790111024396, 75.57211550565194, 75.57211550565194, 75.72316910450392, 76.13101382140431, 76.0856977417487, 76.0856977417487, 74.72621535208077, 74.1824223962136, 74.28815991540999, 74.28815991540999, 74.87726895093276, 76.0705923818635, 77.53581229072783, 77.53581229072783, 78.68381964200299, 79.60524659500014, 80.90430754512727, 80.90430754512727, 80.99493970443848, 80.82878074570128, 81.20641474283126, 81.20641474283126, 81.43299514110925, 81.46320586087965, 81.43299514110925, 81.43299514110925, 82.05231489640242, 81.84083985800963, 81.11578258352007, 81.11578258352007, 80.43604138868609, 80.07351275144131, 80.07351275144131, 79.95266987235972, 79.95266987235972, 80.02819667178571, 80.01309131190052, 80.01309131190052, 79.74119483396693, 79.55993051534453, 78.81976788096978, 78.81976788096978, 78.51766068326579, 78.59318748269179, 79.36356083683694, 79.36356083683694, 79.77140555373732, 80.23967171017851, 80.54177890788249, 80.54177890788249, 80.4209360288009, 79.37866619672215, 78.4874499634954]",78.18336173498679,1.8149784000124782,None
reward-effort-pgACC-TUS,R88533/RE002,A_2,2,2024-07-18_16h12.23.731,2024-07-18 16:15:54,None,None,1,,,2.020314534505208,1,49,approach,shifted,heart,None,85,20,16,reject,1.3477394999936223,None,0,2178,"null",None,None,None
reward-effort-pgACC-TUS,R88533/RE002,A_2,2,2024-07-18_16h12.23.731,2024-07-18 16:15:54,None,None,1,,,2.020314534505208,1,50,approach,shifted,heart,0.84,75,80,87,accept,2.220656300021801,success,87,2265,"[0.8761108733415575, 1.02716447219355, 1.02716447219355, 1.6011681478311224, 2.3715415019762847, 2.3715415019762847, 3.851866770725813, 6.208302912816899, 8.428790815941191, 13.458875657712547, 13.458875657712547, 15.769995720148037, 19.954180408348233, 23.836257898844444, 23.836257898844444, 27.52196571083306, 29.817980413383356, 31.796782558344454, 31.796782558344454, 34.772538455728714, 36.91749955942701, 38.850985624732516, 38.850985624732516, 41.50952896452759, 45.3613957352534, 46.75108884469173, 46.75108884469173, 48.14078195413006, 52.11349160393747, 55.391354699025705, 55.391354699025705, 57.7024747614612, 59.25832682963672, 60.02870018378189, 60.02870018378189, 61.08607537574584, 62.30960952644698, 63.94098839404849, 63.94098839404849, 65.01346894589764, 66.90163893154755, 70.119080587095, 70.119080587095, 74.2428438357544, 76.59927997784548, 77.61133909015383, 77.61133909015383, 78.3363963646434, 80.3605145892601, 81.05536114397927, 81.58404873996125, 81.58404873996125, 82.2184738551396, 82.475264973188, 82.5054756929584, 82.5054756929584, 81.99189345686162, 81.19130938294606, 80.78346466604567, 80.78346466604567, 80.78346466604567, 80.76835930616049, 80.79857002593089, 80.79857002593089, 80.73814858639008, 80.84388610558648, 80.91941290501248, 80.91941290501248, 80.85899146547168, 80.84388610558648, 80.91941290501248, 80.91941290501248, 80.90430754512727, 80.61730570730849, 80.54177890788249, 80.54177890788249, 80.2849877898341, 80.52667354799729, 80.91941290501248, 80.91941290501248, 81.01004506432366, 81.16109866317565, 81.11578258352007, 81.11578258352007, 81.19130938294606, 81.19130938294606, 81.20641474283126, 81.20641474283126, 81.29704690214245, 81.34236298179806, 81.35746834168324, 81.35746834168324, 81.75020769869843, 82.26378993479521, 82.56589713249919, 82.56589713249919, 82.89821504997357, 84.5598046373455, 85.76823342816144, 85.76823342816144, 87.76214093300774, 90.23941995418042, 90.93426650889958, 91.43274338511117, 91.43274338511117, 93.01880617305709, 93.72875808766146, 93.66833664812066, 93.66833664812066, 93.12454369225348]",83.16304611763833,1.8318325000000186,None
reward-effort-pgACC-TUS,R88533/RE002,A_2,2,2024-07-18_16h12.23.731,2024-07-18 16:15:54,None,None,1,,,2.020314534505208,2,51,approach,normal,heart,None,50,100,95,accept,1.4478263000200968,success,95,2360,"[6.238513632587297, 8.881951612497168, 11.797286070340627, 11.797286070340627, 14.63709372875809, 17.31074242843836, 21.177714559049374, 25.830165403690746, 25.830165403690746, 28.503814103371017, 32.400996953752426, 36.05649404597065, 36.05649404597065, 37.92955867173536, 41.2074217668236, 45.69371365272779, 45.69371365272779, 48.20120339367086, 53.261498955212616, 57.32484076433122, 57.32484076433122, 63.11019360036254, 65.34578686337203, 67.03758717051434, 67.03758717051434, 68.88044107650866, 70.0888698673246, 69.16744291432745, 69.16744291432745, 69.10702147478665, 70.64776818307698, 72.3244631303341, 72.3244631303341, 71.64472193550012, 69.54507691145743, 68.69917675788628, 68.69917675788628, 68.48770171949347, 67.8532766043151, 67.44543188741473, 68.0194355630523, 68.0194355630523, 67.95901412351151, 67.44543188741473, 67.41522116764432, 67.41522116764432, 67.17353540948115, 66.56932101407317, 66.1614762971728, 66.1614762971728, 65.9197905390096, 65.95000125878, 65.25515470406084, 65.25515470406084, 64.62072958888247, 64.15246343244128, 63.82014551496691, 63.82014551496691, 63.336773998640524, 63.44251151783692, 63.27635255909973, 63.27635255909973, 63.27635255909973, 63.412300798066525, 63.366984718410926, 62.974245361395745, 62.974245361395745, 62.64192744392136, 62.626822084036164, 62.98935072128094, 62.98935072128094, 63.185720399788536, 63.48782759749252, 63.53314367714812, 63.53314367714812, 63.291457918984925, 63.457616877722124, 63.57845975680372, 63.57845975680372]",65.1949768993569,1.3146883000154048,None
reward-effort-pgACC-TUS,R88533/RE002,A_2,2,2024-07-18_16h12.23.731,2024-07-18 16:15:54,None,None,1,,,2.020314534505208,2,52,approach,normal,heart,None,85,100,98,accept,2.053560300002573,success,98,2458,"[0.8307947936859597, 1.3745877495531333, 2.5830165403690746, 4.169079328314998, 4.169079328314998, 5.34729739936054, 7.1297298658140535, 7.1297298658140535, 10.014853603887113, 14.229249011857709, 17.371163867979156, 17.371163867979156, 24.36494549482642, 29.636716094760963, 34.69701165630272, 40.21046801440045, 40.21046801440045, 45.316079655597804, 47.778253316885284, 51.47906648875911, 51.47906648875911, 54.59077062511015, 56.81125852823444, 59.22811610986633, 62.626822084036164, 62.626822084036164, 65.36089222325722, 67.21885148913674, 70.07376450743939, 70.07376450743939, 72.46041136930089, 73.78968303919842, 75.27000830794795, 75.27000830794795, 76.2065406208303, 76.0705923818635, 76.04038166209311, 76.04038166209311, 75.49658870622594, 74.66579391253998, 74.2579491956396, 74.2579491956396, 75.79869590392993, 76.64459605750108, 77.67176052969464, 77.67176052969464, 79.66566803454094, 80.90430754512727, 81.43299514110925, 82.15805241559882, 82.15805241559882, 82.27889529468041, 82.55079177261399, 83.30605976687396, 83.30605976687396, 83.41179728607035, 83.62327232446314, 83.91027416228192, 83.91027416228192, 83.57795624480755, 83.50242944538154, 85.11870295309787, 85.11870295309787, 86.49329070265101, 84.65043679665669, 84.6202260768863, 84.6202260768863, 85.87397094735783, 86.76518718058459, 86.25160494448781, 85.91928702701344, 85.91928702701344, 85.67760126885024, 85.55675838976865, 86.4781853427658, 86.4781853427658, 86.46307998288061, 86.29692102414342, 86.20628886483222, 86.20628886483222, 86.32713174391381, 86.67455502127339, 86.46307998288061, 86.84071398001059, 86.84071398001059, 87.35429621610736, 88.00382669117093, 88.07935349059693, 88.07935349059693, 88.33614460864531, 88.35124996853051, 89.03099116336448, 89.03099116336448, 89.77115379773925, 89.15183404244608, 89.87689131693564, 89.87689131693564, 90.4811057123436, 89.89199667682084, 89.19715012210168, 89.19715012210168, 89.22736084187207, 88.29082852898972, 88.16998564990813, 88.24551244933411, 88.24551244933411, 87.52045517484456, 87.59598197427056]",86.30979772437342,1.7969247000000905,None
reward-effort-pgACC-TUS,R88533/RE002,A_2,2,2024-07-18_16h12.23.731,2024-07-18 16:15:54,None,None,1,,,2.020314534505208,2,53,approach,normal,heart,None,100,80,81,reject,1.2555439999850933,None,0,2458,"null",None,None,None
reward-effort-pgACC-TUS,R88533/RE002,A_2,2,2024-07-18_16h12.23.731,2024-07-18 16:15:54,None,None,1,,,2.020314534505208,2,54,approach,normal,heart,None,65,60,62,reject,1.4028822999971453,None,0,2458,"null",None,None,None
reward-effort-pgACC-TUS,R88533/RE002,A_2,2,2024-07-18_16h12.23.731,2024-07-18 16:15:54,None,None,1,,,2.020314534505208,2,55,approach,normal,heart,None,80,100,83,reject,2.379515000007814,None,0,2458,"null",None,None,None
reward-effort-pgACC-TUS,R88533/RE002,A_2,2,2024-07-18_16h12.23.731,2024-07-18 16:15:54,None,None,1,,,2.020314534505208,2,56,approach,normal,heart,None,80,80,74,accept,2.2021205999772064,success,74,2532,"[0.8005840739155612, 0.8005840739155612, 0.8307947936859597, 0.8610055134563582, 0.8610055134563582, 0.8761108733415575, 0.8610055134563582, 0.8761108733415575, 0.8761108733415575, 0.8307947936859597, 0.9063215931119559, 0.9214269529971554, 0.9365323128823546, 0.9365323128823546, 0.9818483925379524, 0.9516376727675537, 1.0120591123083509, 1.0120591123083509, 1.02716447219355, 0.9818483925379524, 1.2688502303567384, 1.2688502303567384, 1.5256413484051259, 2.3413307822058864, 3.776339971299817, 3.776339971299817, 5.604088517408928, 9.153848090430756, 13.60992925656454, 16.419526195211603, 16.419526195211603, 23.29246494297727, 28.141285466126238, 32.76352559099721, 32.76352559099721, 37.95976939150576, 42.853905994310324, 47.02298532262532, 47.02298532262532, 49.12263034666802, 52.959391757508634, 56.41851917121926, 56.41851917121926, 58.29158379698397, 60.46675562045266, 62.445557765413774, 64.80199390750485, 64.80199390750485, 66.88653357166235, 68.30643740087109, 69.62060371088342, 69.62060371088342, 70.75350570227337, 72.4906220890713, 73.80478839908362, 73.80478839908362, 74.69600463231038, 76.3726995795675, 78.1249213262506, 79.63545731477055, 79.63545731477055, 80.2094609904081, 81.29704690214245, 82.1429470557136, 82.1429470557136, 83.26074368721837, 83.74411520354474, 83.89516880239673, 83.89516880239673, 84.09153848090432, 84.83170111527907, 84.00090632159312, 83.63837768434834, 83.63837768434834, 83.71390448377434, 83.92537952216713, 83.42690264595555, 83.42690264595555, 83.41179728607035, 83.65348304423354, 83.60816696457795, 83.60816696457795, 83.36648120641476, 83.69879912388913, 83.86495808262633, 83.86495808262633, 83.81964200297072, 86.7349764608142, 87.98872133128573, 87.98872133128573, 88.81951612497168, 89.42373052037966, 90.39047355303241, 90.99468794844039, 90.99468794844039, 91.32700586591477, 91.11553082752198, 90.52642179199921, 90.52642179199921, 90.39047355303241, 90.02794491578763, 89.27267692152768, 88.8497268447421, 88.8497268447421, 88.5627250069233, 88.39656604818612, 87.86787845220414, 87.86787845220414, 87.12771581782938, 86.99176757886258, 87.79235165277814, 87.79235165277814, 88.18509100979333, 87.61108733415574, 86.17607814506182, 86.22139422471741, 86.22139422471741, 86.05523526598023, 83.65348304423354]",85.68856483650889,1.9824736999871675,None
reward-effort-pgACC-TUS,R88533/RE002,A_2,2,2024-07-18_16h12.23.731,2024-07-18 16:15:54,None,None,1,,,2.020314534505208,2,57,approach,normal,heart,None,55,80,91,accept,1.595647200010717,success,91,2623,"[3.0663880566954513, 4.894136602804563, 6.238513632587297, 8.171999697892804, 12.129603987815011, 12.129603987815011, 14.984517006117674, 20.83029128168979, 26.07185116185394, 26.07185116185394, 31.37383248155888, 35.346542131366284, 38.05040155081695, 38.05040155081695, 43.518541829259085, 46.93235316331412, 48.53352131114524, 48.53352131114524, 52.49112560106746, 56.23725485259688, 58.12542483824677, 61.6751844112686, 61.6751844112686, 65.04367966566804, 66.99227109085875, 68.66896603811587, 68.66896603811587, 69.63570907076863, 71.9921452128597, 72.53593816872687, 72.53593816872687, 72.65678104780847, 73.06462576470885, 73.47247048160924, 73.47247048160924, 73.65373480023163, 73.47247048160924, 72.50572744895648, 72.50572744895648, 71.47856297676293, 69.78676266962061, 68.59343923868987, 68.59343923868987, 68.44238563983788, 68.1855945217895, 67.9439087636263, 67.9439087636263, 67.8079605246595, 67.36990508798874, 66.97716573097355, 66.97716573097355, 67.00737645074395, 66.78079605246596, 66.69016389315476, 66.69016389315476, 66.67505853326956, 66.49379421464717, 66.47868885476197, 66.47868885476197, 66.37295133556557, 66.101054857632, 65.9651066186652, 65.9651066186652, 65.9953173384356, 65.9953173384356, 65.9197905390096, 65.9197905390096, 65.84426373958361, 65.8291583796984, 66.0406334180912, 66.13126557740239, 66.13126557740239, 66.0104226983208, 65.42131366279803, 65.07389038543843, 65.07389038543843, 64.84730998716046, 64.66604566853806, 64.54520278945647, 64.54520278945647]",67.14308105487389,1.3320521999849007,None
reward-effort-pgACC-TUS,R88533/RE002,A_2,2,2024-07-18_16h12.23.731,2024-07-18 16:15:54,None,None,1,,,2.020314534505208,2,58,approach,normal,heart,None,70,80,94,accept,1.7981222000089474,success,94,2717,"[0.8912162332267567, 0.9969537524231517, 1.23863951058634, 1.23863951058634, 1.4199038292087311, 2.3564361420910855, 4.138868608544599, 4.138868608544599, 6.1780921930465, 8.474106895596789, 13.927141814153723, 16.328894035900408, 16.328894035900408, 20.467762644445006, 25.422320686790368, 25.422320686790368, 28.715289141763805, 32.265048714785635, 35.965861886659454, 35.965861886659454, 39.515621459681284, 44.213388383978256, 46.766194204576934, 48.50331059137485, 48.50331059137485, 52.14370232370788, 55.79919941592609, 57.09826036605323, 57.09826036605323, 58.805166033080745, 61.388182573449825, 62.03771304851339, 62.03771304851339, 63.00445608116614, 64.33372775106368, 65.16452254474963, 65.51194582210923, 65.51194582210923, 66.58442637395837, 68.1553838020191, 68.78980891719746, 68.78980891719746, 68.83512499685305, 69.72634123007981, 70.91966466101056, 70.91966466101056, 70.66287354296217, 72.2942524105637, 73.33652224264245, 73.33652224264245, 73.97094735782082, 74.40900279449158, 74.1824223962136, 74.1824223962136, 74.1824223962136, 74.0464741572468, 74.83195287127717, 75.45127262657034, 75.45127262657034, 75.19448150852195, 76.1612245411747, 76.58417461796029, 76.58417461796029, 76.3424888597971, 76.40291029933789, 76.76543893658267, 76.76543893658267, 76.79564965635308, 76.88628181566428, 77.59623373026864, 77.59623373026864, 78.03428916693942, 78.04939452682461, 78.14002668613581, 78.10981596636542, 78.10981596636542, 77.50560157095744, 76.75033357669747, 76.40291029933789, 76.40291029933789, 76.50864781853429, 76.56906925807509, 76.62949069761589, 76.62949069761589, 77.24881045290905, 77.49049621107224, 78.04939452682461, 78.04939452682461, 78.457239243725, 79.45419299614814, 79.74119483396693, 79.74119483396693, 79.90735379270413, 80.63241106719369, 81.08557186374966, 81.32725762191285, 81.32725762191285, 81.37257370156846, 80.82878074570128, 80.4964628282269]",75.99652739145863,1.6662973999918904,None
reward-effort-pgACC-TUS,R88533/RE002,A_2,2,2024-07-18_16h12.23.731,2024-07-18 16:15:54,None,None,1,,,2.020314534505208,2,59,approach,normal,heart,None,65,100,98,accept,2.3246232000237796,success,98,2815,"[1.8277485461091112, 2.6887540595654698, 5.392613479016138, 5.392613479016138, 7.522469222829235, 12.280657586667004, 12.280657586667004, 16.374210115556007, 20.920923441000987, 25.331688527479173, 25.331688527479173, 29.00229097958259, 31.736361118803657, 36.479444122756234, 36.479444122756234, 39.36456786082929, 44.15296694443745, 46.902142443543724, 46.902142443543724, 48.41267843206365, 50.70869313461394, 53.79018655119459, 55.512197578107305, 55.512197578107305, 57.959265879509594, 59.71148762619271, 61.25223433448303, 61.25223433448303, 62.52108456483977, 63.20082575967373, 63.472722237607314, 63.472722237607314, 64.22799023186728, 64.75667782784926, 65.67810478084641, 65.67810478084641, 66.41826741522118, 66.47868885476197, 66.56932101407317, 67.18864076936633, 67.18864076936633, 67.95901412351151, 67.95901412351151, 68.29133204098589, 68.29133204098589, 68.97107323581986, 69.51486619168703, 69.48465547191662, 69.48465547191662, 69.72634123007981, 71.78067017446692, 72.59635960826768, 72.59635960826768, 73.15525792402005, 73.33652224264245, 73.36673296241284, 73.97094735782082, 73.97094735782082, 74.48452959391759, 74.71110999219557, 74.52984567357318, 74.52984567357318, 74.49963495380278, 74.83195287127717, 74.98300647012917, 74.98300647012917, 74.83195287127717, 74.30326527529519, 72.44530600941569, 72.44530600941569, 70.51181994411017, 70.0284484277838, 69.8773948289318, 69.8773948289318, 69.33360187306464, 69.90760554870221, 71.73535409481133, 71.73535409481133, 72.2489363309081, 71.9619344930893, 71.69003801515572, 71.69003801515572, 70.82903250169936, 70.85924322146975, 71.13113969940335, 71.04050754009215, 71.04050754009215, 70.99519146043656, 71.05561289997735, 71.76556481458172]",70.35808636205273,1.4962222000176553,None
reward-effort-pgACC-TUS,R88533/RE002,A_2,2,2024-07-18_16h12.23.731,2024-07-18 16:15:54,None,None,1,,,2.020314534505208,2,60,approach,normal,heart,None,80,20,23,reject,1.2288314000179525,None,0,2815,"null",None,None,None
reward-effort-pgACC-TUS,R88533/RE002,A_2,2,2024-07-18_16h12.23.731,2024-07-18 16:15:54,None,None,1,,,2.020314534505208,2,61,approach,normal,heart,0.602,60,100,119,accept,1.8523674000171013,success,119,2934,"[0.8005840739155612, 0.7703733541451626, 0.7703733541451626, 0.7552679942599634, 0.785478714030362, 0.785478714030362, 0.845900153571159, 0.8156894338007604, 0.8761108733415575, 0.8761108733415575, 0.8610055134563582, 0.8912162332267567, 0.8912162332267567, 0.8912162332267567, 1.072480551849148, 1.2688502303567384, 1.4501145489791296, 1.9485914251907055, 1.9485914251907055, 2.598121900254274, 3.8216560509554145, 5.2264545202789465, 5.2264545202789465, 7.371415623977243, 9.320007049167948, 11.903023589537023, 11.903023589537023, 14.546461569446894, 15.845522519574033, 18.33790690063191, 18.33790690063191, 21.02666096019738, 23.232043503436472, 26.872435235769498, 29.364819616827376, 29.364819616827376, 31.509780720525672, 34.470431258024725, 37.219606757131, 37.219606757131, 40.76936633015282, 45.90518869112057, 47.64230507791849, 47.64230507791849, 52.14370232370788, 56.81125852823444, 58.231162357443175, 58.231162357443175, 59.34895898894792, 60.75375745827145, 61.796027290350196, 62.30960952644698, 62.30960952644698, 62.41534704564338, 62.838297122428955, 63.39719543818132, 63.39719543818132, 64.57541350922686, 65.24004934417563, 66.0708441378616, 66.0708441378616, 67.11311396994034, 67.26416756879233, 67.29437828856274, 67.83817124442992, 67.83817124442992, 67.76264444500391, 67.40011580775914, 67.53606404672593, 67.53606404672593, 67.14332468971074, 66.70526925303997, 66.96206037108836, 66.96206037108836, 66.91674429143275, 66.46358349487677, 66.31252989602478, 65.9348958988948, 65.9348958988948, 65.30047078371643, 65.07389038543843, 64.80199390750485, 64.80199390750485, 63.68419727600011, 62.792981042773356, 62.73255960323255, 62.73255960323255, 62.626822084036164, 61.97729160897259, 61.64497369149821, 61.64497369149821, 61.614762971727814, 60.93502177689384, 60.19485914251908, 60.19485914251908, 60.01359482389669, 59.197905390095926, 58.72963923365475, 58.72963923365475, 58.63900707434355, 58.65411243422876, 58.321794516754366, 58.321794516754366, 58.08010875859119, 57.959265879509594, 57.77800156088719, 57.77800156088719, 57.61184260215001]",63.0076233340453,1.7975677000067662,None
reward-effort-pgACC-TUS,R88533/RE002,A_2,2,2024-07-18_16h12.23.731,2024-07-18 16:15:54,None,None,1,,,2.020314534505208,2,62,approach,normal,heart,None,70,40,38,accept,2.0830997999873944,success,38,2972,"[0.8912162332267567, 0.8912162332267567, 0.8307947936859597, 0.8610055134563582, 0.8610055134563582, 0.8912162332267567, 0.8912162332267567, 0.8610055134563582, 0.8761108733415575, 0.9063215931119559, 0.9063215931119559, 0.8761108733415575, 0.9516376727675537, 0.966743032652753, 0.966743032652753, 1.2688502303567384, 1.586062787945923, 2.26580398277989, 2.26580398277989, 4.350343646937389, 6.027038594194507, 8.338158656629997, 8.338158656629997, 11.374335993555048, 13.866720374612926, 15.558520681755244, 17.70348178545354, 17.70348178545354, 21.43450567709776, 23.73052037964805, 26.7818030764583, 26.7818030764583, 30.875355605347305, 34.153218700435545, 37.1138692379346, 37.1138692379346, 41.32826464590519, 45.69371365272779, 47.763147957000086, 47.763147957000086, 49.74195010196119, 53.24639359532741, 55.34603861937012, 55.34603861937012, 56.02577981420408, 56.69041564915285, 58.48795347549156, 58.48795347549156, 59.8323305052743, 60.31570202160067, 62.007502328742994, 62.007502328742994, 63.53314367714812, 64.00140983358929, 64.45457063014527, 64.45457063014527, 65.30047078371643, 66.02552805820599, 66.69016389315476, 66.69016389315476, 67.29437828856274, 68.1100677223635, 68.44238563983788, 68.44238563983788, 68.53301779914908, 68.82001963696787, 68.63875531834547, 68.63875531834547, 68.45749099972308, 68.1855945217895, 67.46053724729992, 67.46053724729992, 67.14332468971074, 66.65995317338437, 66.56932101407317, 66.56932101407317, 66.23700309659878, 66.28231917625439, 66.37295133556557, 66.37295133556557, 66.35784597568039, 66.78079605246596, 68.1100677223635, 70.36076634525818, 70.36076634525818, 71.93172377331891, 73.94073663805041, 75.07363862944035, 75.07363862944035, 75.73827446438912, 76.41801565922309, 77.36965333199065, 77.36965333199065, 77.46028549130185, 77.86813020820222, 77.92855164774302, 77.92855164774302, 77.94365700762822, 77.97386772739861, 78.457239243725, 78.457239243725, 78.97082147982178, 79.46929835603335, 79.40887691649255, 79.40887691649255, 78.71403036177338, 78.62339820246218, 78.06449988670981, 78.06449988670981, 76.82586037612347, 76.13101382140431, 75.17937614863676, 75.17937614863676, 74.45431887414719, 73.81989375896882, 73.36673296241284, 73.36673296241284, 72.2338309710229, 71.65982729538533, 70.98008610055135, 70.98008610055135, 70.40608242491379, 70.07376450743939, 69.51486619168703, 69.51486619168703, 69.06170539513104, 68.33664812064148, 67.14332468971074, 67.14332468971074, 66.0406334180912, 65.58747262153521, 65.49684046222403, 65.49684046222403, 65.36089222325722, 64.98325822612725, 64.51499206968607, 64.51499206968607, 65.04367966566804, 65.16452254474963, 65.08899574532364, 65.07389038543843, 65.07389038543843, 65.01346894589764, 64.33372775106368, 64.03162055335969, 64.03162055335969, 63.57845975680372, 62.55129528461016, 62.55129528461016, 61.46370937287582, 60.11933234309308, 58.66921779411395, 56.62999420961206, 56.62999420961206, 53.79018655119459, 50.799325293925136, 53.12555071624582, 53.12555071624582, 53.50318471337581, 50.72379849449914, 48.488205231489644, 48.488205231489644, 46.82661564411773, 44.36444198283025, 37.95976939150576, 37.95976939150576, 29.213766017975384, 23.367991742403266, 16.827370912111984, 16.827370912111984, 14.229249011857709, 12.77913446287858, 12.386395105863398, 12.386395105863398, 12.461921905289396, 12.356184386093, 12.310868306437403, 12.310868306437403, 18.005588983157526, 23.639888220336854, 24.591525893104407, 24.591525893104407, 25.860376123461144, 34.545958057450726, 42.82369527453992, 42.82369527453992, 49.59089650310919, 57.12847108582363, 61.614762971727814, 61.614762971727814, 63.246141839329326, 66.17658165705798, 69.51486619168703, 69.51486619168703, 73.29120616298684, 76.0856977417487, 77.06754613428666, 77.06754613428666, 78.78955716119937, 80.99493970443848, 82.05231489640242, 82.05231489640242, 82.88310969008838, 83.42690264595555, 84.39364567860831, 84.39364567860831, 86.13076206540622, 86.91624077943658, 87.52045517484456, 87.52045517484456, 87.79235165277814, 87.11261045794417, 86.31202638402861, 86.31202638402861, 84.80149039550868, 84.07643312101912, 84.1670652803303, 83.63837768434834, 83.63837768434834, 83.07947936859597, 82.6112132121548, 82.4148435336472, 82.4148435336472, 82.46015961330279, 82.12784169582842, 81.99189345686162, 81.99189345686162, 81.87105057778003, 81.46320586087965, 81.40278442133885, 81.40278442133885, 81.26683618237206, 81.07046650386447, 81.07046650386447, 80.88920218524207, 80.5870949875381, 80.46625210845649, 80.46625210845649, 80.46625210845649, 80.4964628282269, 80.54177890788249, 80.52667354799729, 80.52667354799729, 80.4813574683417, 80.46625210845649, 79.84693235316333, 79.84693235316333, 80.10372347121172, 80.52667354799729, 79.74119483396693, 79.74119483396693, 79.00103219959217, 78.88018932051057]",81.47063472639698,4.2156837999937125,None
reward-effort-pgACC-TUS,R88533/RE002,A_2,2,2024-07-18_16h12.23.731,2024-07-18 16:15:54,None,None,1,,,2.020314534505208,2,63,approach,normal,heart,None,95,40,34,reject,1.5212980000069365,None,0,2972,"null",None,None,None
reward-effort-pgACC-TUS,R88533/RE002,A_2,2,2024-07-18_16h12.23.731,2024-07-18 16:15:54,None,None,1,,,2.020314534505208,2,64,approach,normal,heart,None,50,40,32,accept,1.6090606999932788,success,32,3004,"[0.9516376727675537, 0.9969537524231517, 0.966743032652753, 0.966743032652753, 1.0120591123083509, 1.2537448704715393, 1.7824324664535134, 1.7824324664535134, 3.5497595730218277, 7.507363862944036, 12.930188061730572, 12.930188061730572, 17.205004909241968, 21.781928954457346, 25.18063492862718, 28.307444424863426, 28.307444424863426, 31.086830643740093, 33.68495254399437, 37.53681931472018, 37.53681931472018, 40.75426097026762, 44.57591702122304, 46.82661564411773, 46.82661564411773, 49.2887893054052, 52.09838624405228, 53.397447194179406, 53.397447194179406, 54.39440094660256, 54.62098134488055, 53.95634550993178, 53.95634550993178, 54.03187230935777, 55.36114397925531, 55.98046373454848, 55.98046373454848, 56.46383525087486, 57.007628206742034, 57.309735404446016, 57.309735404446016, 58.47284811560637, 59.53022330757031, 59.605750106996304, 59.605750106996304, 59.68127690642231, 59.6510661866519, 59.590644747111114, 59.590644747111114, 59.6510661866519, 60.02870018378189, 59.80211978550389, 59.80211978550389, 59.04685179124394, 58.321794516754366, 58.019687319050384, 58.019687319050384, 57.929055159739185, 57.747790841116796, 57.61184260215001, 57.61184260215001, 57.64205332192041, 58.019687319050384, 58.47284811560637, 58.47284811560637, 58.367110596409965, 57.94416051962439, 57.581631882379604, 57.581631882379604, 57.06804964628282, 56.735731728808446, 56.53936205030086, 56.53936205030086, 56.47894061076006, 56.50915133053046, 56.524256690415655, 56.524256690415655, 56.46383525087486, 56.448729890989654, 56.43362453110446, 56.43362453110446, 56.37320309156366, 56.41851917121926, 56.50915133053046, 56.50915133053046, 56.62999420961206]",57.03437212260436,1.4332047999778297,None
reward-effort-pgACC-TUS,R88533/RE002,A_2,2,2024-07-18_16h12.23.731,2024-07-18 16:15:54,None,None,1,,,2.020314534505208,2,65,approach,normal,heart,None,75,80,86,accept,1.2839289999974426,success,86,3090,"[4.153973968429798, 6.9786762669620614, 12.643186223911787, 12.643186223911787, 16.28357795624481, 22.748671987110097, 27.250069232899477, 27.250069232899477, 31.675939679262864, 36.34349588378944, 40.19536265451525, 40.19536265451525, 45.93539941089097, 48.035044434933674, 53.38234183429421, 53.38234183429421, 57.173787165479226, 59.817225145389095, 62.24918808690618, 62.24918808690618, 64.99836358601245, 66.93184965131795, 68.36685884041188, 68.36685884041188, 71.47856297676293, 72.0978827320561, 73.72926159965762, 73.72926159965762, 74.37879207472119, 74.93769039047356, 75.60232622542233, 75.60232622542233, 76.1461191812895, 76.75033357669747, 77.59623373026864, 77.59623373026864, 78.3666070844138, 79.01613755947736, 79.36356083683694, 79.36356083683694, 79.43908763626295, 79.59014123511494, 79.92245915258933, 79.92245915258933, 79.95266987235972, 80.33030386948971, 80.94962362478287, 80.94962362478287, 81.34236298179806, 81.84083985800963, 82.35442209410641, 82.18826313536921, 82.18826313536921, 82.17315777548401, 82.1429470557136, 82.03720953651722, 82.03720953651722, 81.99189345686162, 82.12784169582842, 82.18826313536921, 82.18826313536921, 82.17315777548401, 82.12784169582842, 82.00699881674683, 82.00699881674683, 81.29704690214245, 81.34236298179806, 81.50852194053525, 81.88615593766522, 81.88615593766522, 82.15805241559882, 81.81062913823924, 81.64447017950204, 81.64447017950204, 81.59915409984644, 81.71999697892804, 81.75020769869843, 81.75020769869843, 81.41788978122405, 81.10067722363486, 80.93451826489768, 80.93451826489768, 80.61730570730849, 80.46625210845649, 79.81672163339293, 79.81672163339293]",79.9843424011513,1.4314261000254191,None
reward-effort-pgACC-TUS,R88533/RE002,A_2,2,2024-07-18_16h12.23.731,2024-07-18 16:15:54,None,None,1,,,2.020314534505208,2,66,approach,normal,heart,None,50,20,18,reject,1.5446063999843318,None,0,3090,"null",None,None,None
reward-effort-pgACC-TUS,R88533/RE002,A_2,2,2024-07-18_16h12.23.731,2024-07-18 16:15:54,None,None,1,,,2.020314534505208,2,67,approach,normal,heart,None,65,40,34,reject,1.7283514000009745,None,0,3090,"null",None,None,None
reward-effort-pgACC-TUS,R88533/RE002,A_2,2,2024-07-18_16h12.23.731,2024-07-18 16:15:54,None,None,1,,,2.020314534505208,2,68,approach,normal,heart,None,65,20,19,reject,1.503797899989877,None,0,3090,"null",None,None,None
reward-effort-pgACC-TUS,R88533/RE002,A_2,2,2024-07-18_16h12.23.731,2024-07-18 16:15:54,None,None,1,,,2.020314534505208,2,69,approach,normal,heart,0.826,85,20,16,reject,1.3189109000086319,None,0,3090,"null",None,None,None
reward-effort-pgACC-TUS,R88533/RE002,A_2,2,2024-07-18_16h12.23.731,2024-07-18 16:15:54,None,None,1,,,2.020314534505208,2,70,approach,normal,heart,None,65,80,97,accept,1.518464100023266,success,97,3187,"[1.570957428060724, 2.160066463583495, 4.54671332544498, 4.54671332544498, 6.344251151783692, 8.2173157775484, 12.14470934770021, 12.14470934770021, 14.606883008987692, 17.06905667027517, 21.38918959744216, 21.38918959744216, 24.33473477505602, 28.277233705093032, 31.29830568213288, 31.29830568213288, 34.45532589813953, 39.002039223584504, 44.09254550489666, 44.09254550489666, 46.88703708365852, 50.34616449736916, 55.466881498451706, 57.11336572593842, 57.11336572593842, 59.197905390095926, 60.829284257697445, 61.55434153218702, 61.55434153218702, 62.12834520782459, 63.185720399788536, 64.54520278945647, 64.54520278945647, 65.8291583796984, 67.46053724729992, 68.29133204098589, 70.3758717051434, 70.3758717051434, 72.33956849021929, 73.29120616298684, 74.60537247299918, 74.60537247299918, 75.55701014576674, 76.2971727801415, 76.67480677727147, 76.67480677727147, 76.68991213715668, 76.90138717554947, 76.55396389818988, 76.22164598071551, 76.22164598071551, 75.61743158530753, 75.39085118702954, 74.63558319276959, 74.63558319276959, 74.63558319276959, 75.28511366783314, 75.23979758817755, 75.23979758817755, 75.19448150852195, 75.08874398932555, 75.11895470909596, 75.11895470909596, 74.93769039047356, 74.99811183001435, 75.43616726668515, 75.73827446438912, 75.73827446438912, 76.0101709423227, 75.57211550565194, 75.43616726668515, 75.43616726668515, 75.45127262657034, 75.81380126381512, 75.67785302484833, 75.67785302484833, 75.48148334634074, 75.61743158530753, 75.52679942599634, 75.04342790966996, 75.04342790966996, 74.81684751139197, 74.96790111024396, 75.30021902771836, 75.30021902771836, 75.33042974748875, 75.39085118702954, 75.81380126381512, 75.81380126381512, 75.79869590392993]",74.06133188828144,1.4989399000187404,None
reward-effort-pgACC-TUS,R88533/RE002,A_2,2,2024-07-18_16h12.23.731,2024-07-18 16:15:54,None,None,1,,,2.020314534505208,2,71,approach,normal,heart,None,85,100,101,accept,2.594961200025864,success,101,3288,"[6.842728027995268, 13.383348858286551, 17.46179602729035, 17.46179602729035, 23.73052037964805, 30.51282696810252, 30.51282696810252, 35.69396540872587, 40.99594672843081, 46.977669242969725, 46.977669242969725, 53.6240275924574, 57.12847108582363, 59.34895898894792, 59.34895898894792, 63.21593111955893, 66.0406334180912, 69.06170539513104, 72.50572744895648, 72.50572744895648, 75.85911734347071, 79.06145363913296, 81.04025578409407, 81.04025578409407, 83.95559024193753, 89.01588580347928, 90.33005211349162, 90.33005211349162, 90.82852898970319, 91.29679514614438, 91.35721658568517, 91.35721658568517, 91.56869162407796, 92.55054001661591, 92.9734900934015, 92.9734900934015, 93.38133481030187, 94.31786712318423, 95.40545303491858, 95.40545303491858, 95.93414063090054, 95.84350847158935, 96.11540494952293, 96.11540494952293, 96.47793358676772, 96.9461997432089, 97.89783741597645, 97.89783741597645, 98.44163037184363, 98.03378565494324, 97.80720525666526, 97.80720525666526, 98.51715717126962, 98.9098965282848, 98.00357493517285, 98.00357493517285, 97.76188917700965, 96.28156390826013, 95.90392991113015, 95.85861383147454, 95.85861383147454, 94.43871000226581, 94.03086528536544, 93.92512776616904, 93.92512776616904, 93.60791520857987, 93.30580801087586, 92.8073311346643, 92.8073311346643, 92.56564537650111, 91.99164170086354, 92.05206314040434, 92.05206314040434, 91.94632562120793, 91.31190050602956, 91.13063618740718, 91.13063618740718, 91.08532010775157, 90.8738450693588, 90.84363434958838, 90.84363434958838, 90.79831826993279, 90.9493718687848]",93.40931687041709,1.3817162000050303,None
reward-effort-pgACC-TUS,R88533/RE002,A_2,2,2024-07-18_16h12.23.731,2024-07-18 16:15:54,None,None,1,,,2.020314534505208,2,72,approach,normal,heart,None,85,80,72,reject,2.2741570999787655,None,0,3288,"null",None,None,None
reward-effort-pgACC-TUS,R88533/RE002,A_2,2,2024-07-18_16h12.23.731,2024-07-18 16:15:54,None,None,1,,,2.020314534505208,2,73,approach,normal,heart,None,95,80,91,reject,1.8458225000067614,None,0,3288,"null",None,None,None
