expName,curec_ID,trial_schedule,session_nr,date,start_time,end_time,duration,participant,age,gender,max_strength,block_number,trial_count,block_action_type,block_global_effort_state,block_attention_focus,trial_rating,trial_effort,trial_outcome_level,trial_actual_outcome,response,response_time,result,points,cumulative_points,effort_trace,effort_expended,effort_response_time,final_bonus_payment
reward-effort-pgACC-TUS,R88533/RE002,B_8,1,2024-07-30_18h02.50.759,2024-07-30 18:03:58,None,None,4,,,1.6367454528808594,1,1,avoid,shifted,reward,None,80,-40,-40,accept,2.4294686999637634,success,0,0,"[9.639610033957718, 9.136187459650449, 8.76328184905247, 8.76328184905247, 8.446312080044189, 7.961534786266819, 7.77508198096783, 7.77508198096783, 7.681855578318336, 7.476757492489448, 7.290304687190459, 7.290304687190459, 7.066561320831672, 6.656365149173897, 6.1715878553965275, 6.1715878553965275, 5.649520000559359, 5.612229439499561, 5.668165281089258, 5.668165281089258, 5.649520000559359, 5.817327525328448, 5.817327525328448, 6.451267063345011, 6.749591551823392, 7.43946693142965, 8.464957360574088, 8.464957360574088, 11.019360793170234, 15.38235643716657, 18.309665480360692, 18.309665480360692, 24.537189177346917, 32.274980597254945, 39.43476832073611, 47.28443142382354, 47.28443142382354, 57.66985267897722, 68.12985505625048, 74.11499010634802, 79.33566865471971, 79.33566865471971, 82.8036908332809, 86.58868278085036, 91.54832740180346, 94.79260621400587, 94.79260621400587, 95.03499486089456, 94.1773119565192, 94.06544027333982, 94.15866667598931, 94.15866667598931, 93.58066297956245, 93.31962905214385, 95.40790047149254, 95.40790047149254, 96.45203618116686, 95.7994513626204, 95.87403248474, 97.4029454881917, 97.4029454881917, 98.87592265005372, 98.63353400316504, 98.81998680846402, 98.81998680846402, 99.84547723760846, 100.55399789774462, 99.71496027389917, 99.2488282606517, 99.2488282606517, 99.192892419062, 99.43528106595069, 97.94365862355878, 97.94365862355878, 96.35880977851737, 96.20964753427819, 95.63164383785133, 94.2705383591687, 94.2705383591687, 94.2705383591687, 94.401055322878, 94.02814971228001, 94.02814971228001, 93.78576106539133, 94.10273083439961, 93.76711578486143, 93.76711578486143, 92.42465558670871, 92.5178819893582, 92.7043347946572, 92.7043347946572, 92.12633109823032, 91.62290852392306, 91.79071604869215, 91.79071604869215, 92.03310469558083, 91.23135763279518, 89.79567103199298, 90.24315776471055, 90.24315776471055, 90.67199921689821, 89.3108937382156, 88.37862971172066, 88.37862971172066, 89.70244462934347]",94.43233127731524,1.7731894000899047,None
reward-effort-pgACC-TUS,R88533/RE002,B_8,1,2024-07-30_18h02.50.759,2024-07-30 18:03:58,None,None,4,,,1.6367454528808594,1,2,avoid,shifted,reward,None,90,-80,-81,accept,1.678658700082451,success,0,0,"[7.6072744561987395, 7.532693334079145, 7.476757492489448, 7.402176370369852, 7.327595248250257, 7.271659406660561, 7.2157235650708635, 7.159787723481167, 6.898753796062583, 6.76823683235329, 6.712300990763594, 6.656365149173897, 6.712300990763594, 6.712300990763594, 6.6936557102336955, 6.78688211288319, 7.178433004011066, 7.681855578318336, 7.681855578318336, 8.2785045552751, 9.471802509188628, 10.254904291444381, 11.336330562178516, 13.797507592125166, 13.797507592125166, 14.729771618620111, 15.289130034517076, 15.38235643716657, 15.717971486704748, 16.650235513199693, 16.650235513199693, 17.340110892805953, 17.768952344993625, 18.86902389625766, 20.286065216529973, 22.392981916408548, 24.12699300568914, 24.12699300568914, 25.842358814439837, 26.998366207293568, 28.806958418693757, 31.58510521764869, 31.58510521764869, 34.51241426084281, 37.066817693438956, 40.62806627464964, 44.7486732717573, 46.93017109375546, 48.73876330515565, 48.73876330515565, 52.971241985442695, 57.856305484276206, 59.73947881779599, 63.71092357066445, 70.46051512248785, 73.51834112939125, 74.2268617895274, 74.2268617895274, 73.42511472674175, 75.28964277973165, 79.00005360518152, 80.9578080608209, 81.12561558559, 81.2374872687694, 81.2374872687694, 81.2374872687694, 81.66632872095705, 82.95285307752009, 87.18533175780713, 95.03499486089456, 102.19478258437573, 107.22900832744841, 102.77278628080259, 101.89645809589733, 102.02697505960663, 102.02697505960663, 104.0593106373656, 106.80016687526074, 106.76287631420094, 106.83745743632053, 105.8679028487658, 102.4931070728541, 100.44212621456523, 100.8896129472828, 101.22522799682099, 101.22522799682099, 102.08291090119633, 103.10840133034075, 102.36259010914482, 102.25071842596543, 103.48130694093874, 103.22027301352017, 103.23891829405005, 104.52544265061307, 107.65784977963608, 107.65784977963608, 108.04940067076396, 105.51364251869772, 104.45086152849348, 105.68145004346681, 105.68145004346681, 106.07300093459469, 104.56273321167289, 103.74234086835732, 103.74234086835732, 103.36943525775935, 103.01517492769128, 103.01517492769128, 103.35078997722944, 103.03382020822116, 103.01517492769128, 107.04255552214943, 107.04255552214943, 104.69325017538218, 103.01517492769128, 103.10840133034075, 102.99652964716137, 102.13884674278601, 102.325299548085, 102.5863334755036, 101.74729585165814, 100.7218054225137, 101.91510337642724]",103.61113333870246,2.319454199867323,None
reward-effort-pgACC-TUS,R88533/RE002,B_8,1,2024-07-30_18h02.50.759,2024-07-30 18:03:58,None,None,4,,,1.6367454528808594,1,3,avoid,shifted,reward,None,95,-40,-36,accept,1.794058000203222,success,0,0,"[2.181497821998168, 2.2374336635878644, 2.2374336635878644, 2.2187883830579658, 2.2187883830579658, 2.181497821998168, 2.181497821998168, 2.2374336635878644, 2.1628525414682693, 2.1628525414682693, 2.1628525414682693, 2.1628525414682693, 2.1628525414682693, 2.2001431025280667, 2.2187883830579658, 2.2187883830579658, 2.330660066237359, 2.2933695051775613, 2.2933695051775613, 2.2933695051775613, 2.3120147857074604, 2.2747242246476627, 2.4238864688868533, 2.4238864688868533, 2.5544034325961458, 2.7035656768353364, 2.8154373600147298, 2.8154373600147298, 3.1510524095529098, 3.6731202643900778, 3.840927789159168, 4.381640924526235, 4.381640924526235, 4.493512607705628, 4.568093729825224, 4.512157888235527, 4.512157888235527, 4.661320132474718, 5.537648317379965, 6.5631387465244035, 6.5631387465244035, 7.383531089839954, 8.539538482693684, 10.254904291444381, 10.254904291444381, 13.592409506296278, 17.004495843267772, 18.253729638770995, 20.86406891295684, 20.86406891295684, 22.896404490715817, 29.030701785052543, 34.06492752812524, 37.812628914634914, 37.812628914634914, 45.046997760235676, 49.5405103679413, 56.569781127713185, 56.569781127713185, 59.23605624348872, 64.97880264669757, 70.44186984195794, 72.7911751887252, 72.7911751887252, 71.33684330739308, 69.82657558447127, 71.0571640994446, 71.0571640994446, 73.38782416568196, 75.81171063456881, 76.22190680622658, 77.6389481264989, 77.6389481264989, 79.91367235114657, 80.36115908386414, 79.54076674054859, 79.54076674054859, 82.61723802798191, 89.46005598245479, 93.20775736896447, 96.22829281480809, 96.22829281480809, 96.67577954752565, 97.12326628024323, 97.4029454881917, 97.4029454881917, 97.21649268289272, 99.99463948184766, 101.22522799682099, 102.6795598781531, 102.6795598781531, 103.14569189140057, 103.36943525775935, 102.88465796398198, 102.88465796398198, 100.9641940694024, 99.80818667654866, 101.50490720476945, 103.55588806305833, 103.55588806305833, 107.5086875353969, 106.65100463102155, 106.87474799738035, 106.87474799738035, 107.97481954864436, 106.68829519208134, 105.56957836028742, 105.56957836028742, 107.11713664426902, 108.81385717248982, 111.34961532455607, 111.34961532455607, 113.34466034125525, 114.63118469781828, 114.70576581993785, 111.62929453250455, 111.62929453250455, 109.33592502732698, 109.44779671050637, 110.79025690865909, 108.96301941672901, 108.96301941672901, 109.57831367421566, 110.9767097139581, 111.08858139713749, 111.08858139713749, 108.21720819553306, 107.6392044991062, 109.72747591845487, 109.46644199103628, 109.46644199103628, 108.10533651235366, 109.3732155883868, 108.06804595129387, 108.06804595129387, 107.1357819247989, 108.90708357513932, 109.70883063792496, 106.59506878943186, 106.59506878943186, 105.42041611604822, 108.60875908666094, 109.2986344662672, 109.2986344662672]",106.8133102697326,2.395442800130695,None
reward-effort-pgACC-TUS,R88533/RE002,B_8,1,2024-07-30_18h02.50.759,2024-07-30 18:03:58,None,None,4,,,1.6367454528808594,1,4,avoid,shifted,reward,None,95,-20,-16,accept,3.1836741000879556,success,0,0,"[1.6407846866311009, 1.6221394061012018, 1.6967205282207976, 1.6780752476908984, 1.6780752476908984, 1.7153658087506962, 1.7713016503403929, 1.6967205282207976, 1.6967205282207976, 1.6780752476908984, 1.6967205282207976, 1.6221394061012018, 1.6221394061012018, 1.6407846866311009, 1.6407846866311009, 1.6780752476908984, 1.6967205282207976, 1.6967205282207976, 2.5357581520662467, 3.486667459091089, 3.486667459091089, 6.1715878553965275, 9.248059142829842, 16.146812938892424, 19.98774072805159, 19.98774072805159, 27.296690695771947, 36.69391208284098, 36.69391208284098, 42.436658486049836, 48.99979723257424, 55.43241901538934, 58.75127894971135, 58.75127894971135, 66.39584396696988, 70.16219063400946, 73.07085439667368, 73.07085439667368, 75.960872878808, 75.92358231774821, 78.62714799458355, 78.62714799458355, 80.54761188916314, 81.25613254929928, 81.21884198823949, 82.99014363857988, 82.99014363857988, 86.73784502508956, 90.16857664259095, 89.4787012629847, 89.4787012629847, 90.50419169212913, 94.1773119565192, 99.73360555442908, 101.038775191522, 101.038775191522, 100.7963865446333, 101.11335631364157, 101.11335631364157, 102.82872212239229, 102.15749202331592, 100.40483565350542, 99.71496027389917, 99.71496027389917, 100.12515644555695, 99.80818667654866, 99.37934522436099, 99.37934522436099, 100.12515644555695, 100.49806205615492, 99.65902443230948, 99.65902443230948, 98.91321321111351, 99.73360555442908, 100.12515644555695, 100.75909598357352, 100.75909598357352, 105.92383869035548, 107.5273328159268, 108.49688740348154, 108.49688740348154, 110.62244938389001, 111.74116621568395, 112.4123963147603, 112.4123963147603, 112.4496868758201, 114.3515054898698, 114.94815446682655, 114.94815446682655, 115.26512423583483, 113.97859987927181, 113.71756595185323, 114.27692436775018, 114.27692436775018, 113.28872449966556, 111.1072266776674, 111.21909836084679, 111.21909836084679, 112.31916991211082, 110.26818905382194, 107.24765360797832, 106.59506878943186, 106.59506878943186, 109.35457030785689, 107.30358944956802, 104.93563882227086, 104.93563882227086, 107.91888370705468, 108.8697930140795, 106.78152159473085, 106.78152159473085, 107.06120080267934, 108.12398179288355, 107.45275169380722, 107.45275169380722]",106.31057789618534,1.911694800015539,None
reward-effort-pgACC-TUS,R88533/RE002,B_8,1,2024-07-30_18h02.50.759,2024-07-30 18:03:58,None,None,4,,,1.6367454528808594,1,5,avoid,shifted,reward,0.596,85,-40,-41,accept,1.2862070999108255,success,0,0,"[1.5662035645115053, 1.5475582839816064, 1.5475582839816064, 1.5662035645115053, 1.5662035645115053, 1.5289130034517076, 1.603494125571303, 1.584848845041404, 1.584848845041404, 1.584848845041404, 1.603494125571303, 1.603494125571303, 1.603494125571303, 1.6407846866311009, 2.4238864688868533, 5.966489769567639, 5.966489769567639, 9.43451194812883, 16.985850562737873, 22.48620831905804, 22.48620831905804, 30.671486471683647, 37.53294970668643, 42.436658486049836, 42.436658486049836, 47.24714086276374, 54.388283305715014, 57.27830178784934, 57.27830178784934, 59.347927926668106, 63.20750099635718, 69.64012277917229, 69.64012277917229, 70.19948119506925, 70.23677175612906, 72.36233373653752, 72.36233373653752, 73.68614865416035, 74.3200881921769, 74.5624768390656, 75.90493703721832, 75.90493703721832, 78.31017822557527, 79.89502707061666, 80.67812885287242, 80.67812885287242, 81.2374872687694, 82.7104644306314, 86.43952053661117, 86.43952053661117, 89.57192766563419, 90.8398067416673, 92.10768581770043, 93.31962905214385, 93.31962905214385, 95.50112687414203, 96.32151921745758, 96.20964753427819, 96.20964753427819, 96.86223235282463, 95.70622495997091, 96.37745505904726, 96.37745505904726, 97.04868515812363, 96.06048529003898, 92.83485175836648, 92.18226693982002, 92.18226693982002, 93.72982522380163, 92.81620647783659, 92.81620647783659, 91.1008406690859, 92.05174997611073, 91.43645571862407, 87.24126759939682, 87.24126759939682, 86.51410165873077, 86.64461862244006, 85.8801621207142, 89.18037677450631, 89.18037677450631, 94.12137611492952, 95.48248159361212, 95.07228542195435, 95.07228542195435, 99.56579802965997, 99.64037915177958, 96.67577954752565, 96.67577954752565, 98.61488872263514, 102.25071842596543, 104.63731433379246, 104.63731433379246, 104.52544265061307, 104.67460489485228, 105.10344634703995, 105.10344634703995, 103.72369558782744, 102.5490429144438, 102.17613730384582, 102.97788436663147, 102.97788436663147, 102.99652964716137, 102.23207314543552, 103.05246548875107, 103.05246548875107, 103.63046918517793, 102.34394482861491, 101.67271472953855, 101.67271472953855, 102.26936370649531, 102.4931070728541, 101.74729585165814, 101.74729585165814, 102.12020146225613, 102.88465796398198, 101.39303552159006, 101.39303552159006, 100.90825822781271, 102.02697505960663, 102.82872212239229, 100.8150318251632, 100.8150318251632, 100.10651116502704, 101.98968449854684, 102.43717123126441, 102.43717123126441, 100.8150318251632, 100.10651116502704, 100.38619037297553, 100.64722430039413, 100.64722430039413, 99.86412251813836, 100.852322386223, 101.72865057112826, 101.80323169324785, 101.80323169324785, 101.13200159417148, 101.87781281536743, 102.12020146225613, 102.12020146225613]",100.99336491152174,2.3384697001893073,None
reward-effort-pgACC-TUS,R88533/RE002,B_8,1,2024-07-30_18h02.50.759,2024-07-30 18:03:58,None,None,4,,,1.6367454528808594,1,6,avoid,shifted,reward,None,60,-20,-22,accept,1.5258301000576466,success,0,0,"[7.010625479241976, 7.010625479241976, 6.898753796062583, 6.898753796062583, 6.824172673942987, 6.805527393413088, 6.76823683235329, 6.76823683235329, 6.656365149173897, 6.600429307584201, 6.600429307584201, 6.600429307584201, 6.581784027054302, 6.5444934659945035, 6.581784027054302, 6.581784027054302, 6.6190745881141, 6.656365149173897, 6.656365149173897, 6.656365149173897, 6.675010429703796, 6.600429307584201, 6.637719868643998, 6.637719868643998, 6.656365149173897, 6.730946271293494, 7.029270759771874, 7.029270759771874, 7.234368845600763, 7.420821650899752, 7.663210297788437, 7.663210297788437, 7.9988253473266155, 8.707346007462775, 9.471802509188628, 9.788772278196909, 9.788772278196909, 10.124387327735088, 10.982070232110436, 12.39911155238275, 15.084031948688187, 15.084031948688187, 17.15365808750696, 19.036831421026747, 21.908204622631175, 21.908204622631175, 26.3830719498069, 32.57330508573333, 37.83127419516481, 42.56717544975913, 42.56717544975913, 47.079333337994655, 53.008532546502494, 59.42250904878771, 59.42250904878771, 68.85702099691655, 70.62832264725692, 74.24550707005731, 74.24550707005731, 77.75081980967829, 80.10012515644556, 80.51032132810333, 80.80864581658172, 80.80864581658172, 82.8036908332809, 83.82918126242534, 83.82918126242534, 82.5799474669221, 83.79189070136553, 84.23937743408311, 82.03923433155505, 82.03923433155505, 81.25613254929928, 82.82233611381079, 82.82233611381079, 84.23937743408311, 82.8409813943407, 84.5377019225615, 84.5377019225615, 85.8801621207142, 84.79873584998008, 82.87827195540048, 82.87827195540048, 82.09517017314474, 80.64083829181263, 80.37980436439403, 80.93916278029101, 80.93916278029101, 80.06283459538575, 79.72721954584759, 78.62714799458355, 78.62714799458355, 78.04914429815668, 77.45249532119992, 76.76261994159366, 76.76261994159366, 76.72532938053386, 76.78126522212357, 76.72532938053386, 76.72532938053386, 76.37106905046578, 76.78126522212357, 78.49663103087425, 78.49663103087425, 78.03049901762678, 76.74397466106376, 76.78126522212357, 77.99320845656699, 77.99320845656699, 77.8999820539175, 76.63210297788436, 76.72532938053386, 76.72532938053386, 76.66939353894416, 75.86764647615851, 75.51338614609044]",79.41544600256077,1.9312561999540776,None
reward-effort-pgACC-TUS,R88533/RE002,B_8,1,2024-07-30_18h02.50.759,2024-07-30 18:03:58,None,None,4,,,1.6367454528808594,1,7,avoid,shifted,reward,None,80,-60,-59,accept,0.5400034000631422,success,0,0,"[2.5916939936559436, 2.5730487131260444, 2.5730487131260444, 2.5916939936559436, 2.5544034325961458, 2.5544034325961458, 2.628984554715741, 2.740856237895134, 2.740856237895134, 2.834082640544629, 2.8527279210745276, 2.8527279210745276, 2.8527279210745276, 2.8527279210745276, 3.039180726373516, 3.2815693732622018, 3.2815693732622018, 3.4680221785611907, 3.5426033006807858, 3.6731202643900778, 4.13925227763755, 4.13925227763755, 4.754546535124213, 5.6308747200294595, 6.1715878553965275, 6.1715878553965275, 7.476757492489448, 9.807417558726806, 13.629700067356076, 13.629700067356076, 17.32146561227605, 19.801287922752604, 25.077902312713984, 25.077902312713984, 30.14941861684648, 34.363252016603624, 37.290561059797746, 40.10599841981248, 40.10599841981248, 44.730027991227395, 49.31676700158252, 54.518800269424304, 54.518800269424304, 57.59527155685762, 60.54122588058164, 63.561761326425255, 67.64507776247311, 67.64507776247311, 70.32999815877855, 74.4692504364161, 77.13552555219164, 82.11381545367463, 82.11381545367463, 89.12444093291661, 93.22640264949436, 93.22640264949436, 91.99581413452104, 93.41285545479336, 96.43339090063698, 96.43339090063698, 94.73667037241617, 93.30098377161396, 92.4433008672386, 90.78387090007762, 86.12255076760289, 86.12255076760289, 84.55634720309139, 85.04112449686876, 85.04112449686876, 84.76144528892029, 82.95285307752009, 82.85962667487058, 83.90376238454492, 83.90376238454492, 84.444475519912, 84.2766679951429, 85.78693571806471, 85.78693571806471, 89.04985981079702, 89.94483327623216, 89.88889743464247, 90.9703237053766, 90.9703237053766, 94.08408555386971, 95.83674192368021, 94.99770429983475, 94.71802509188628, 94.71802509188628, 97.21649268289272, 96.34016449798747, 93.11453096631497, 92.5924631114778, 92.5924631114778, 93.76711578486143, 93.15182152737476, 91.60426324339316, 91.60426324339316, 91.51103684074367, 92.25684806193962, 92.03310469558083, 90.16857664259095, 90.16857664259095, 88.80747116390833, 88.84476172496812, 89.57192766563419, 89.3854748603352, 89.3854748603352, 89.4414107019249, 89.3668295798053, 89.59057294616409, 89.53463710457439, 89.53463710457439, 89.77702575146307, 90.31773888683013, 89.4787012629847, 89.4787012629847, 88.91934284708772, 91.26864819385499, 94.1959572370491, 94.1400213954594, 94.1400213954594, 92.9094328804861, 92.92807816101597, 92.5738178309479, 91.93987829293134, 91.93987829293134, 90.72793505848792, 89.73973519040327, 89.66515406828368, 89.66515406828368, 90.895742583257, 90.24315776471055, 89.68379934881358]",90.81138033036757,2.2211455998476595,None
reward-effort-pgACC-TUS,R88533/RE002,B_8,1,2024-07-30_18h02.50.759,2024-07-30 18:03:58,None,None,4,,,1.6367454528808594,1,8,avoid,shifted,reward,None,55,-20,-20,accept,0.3942984000314027,success,0,0,"[2.013690297229078, 2.013690297229078, 2.050980858288876, 2.013690297229078, 2.013690297229078, 1.9950450166991793, 1.9950450166991793, 1.9950450166991793, 1.9950450166991793, 1.9950450166991793, 2.050980858288876, 2.0882714193486738, 2.0882714193486738, 2.1255619804084716, 2.0882714193486738, 2.0882714193486738, 2.0882714193486738, 2.069626138818775, 2.069626138818775, 2.14420726093837, 2.14420726093837, 2.2001431025280667, 2.367950627297157, 2.927309043194123, 2.927309043194123, 4.28841452187674, 8.502247921633886, 14.487382971731424, 14.487382971731424, 20.192838813880478, 26.867849243584274, 33.80389360070666, 33.80389360070666, 40.47890403041045, 46.16571459202961, 51.1626497740425, 51.1626497740425, 55.861260467577026, 57.893596045336004, 58.95637703554023, 58.95637703554023, 60.37341835581255, 65.31441769623575, 66.78739485809776, 67.75694944565251, 67.75694944565251, 69.90115670659087, 72.7538846276654, 73.42511472674175, 73.42511472674175, 72.36233373653752, 72.7352393471355, 75.77442007350902, 77.07958971060194, 77.07958971060194, 76.25919736728639, 74.4506051558862, 73.10814495773347, 73.10814495773347, 72.77252990819531, 72.7911751887252, 72.13859037017873, 71.54194139322198, 71.54194139322198, 71.46736027110238, 71.70974891799106, 72.02671868699935, 72.21317149229833, 72.21317149229833, 72.15723565070864, 72.26910733388803, 72.26910733388803, 72.26910733388803, 72.6979487860757, 72.6793035055458, 72.25046205335813, 72.25046205335813, 72.04536396752924, 72.11994508964884, 72.17588093123854, 72.17588093123854, 72.10129980911894, 72.08265452858905, 72.7165940666056, 73.05220911614379, 73.05220911614379, 72.49285070024682, 71.80297532064056, 71.48600555163227, 71.50465083216217, 71.50465083216217, 71.0571640994446, 70.59103208619713, 70.36728871983836, 70.36728871983836, 69.60283221811248, 68.81973043585674, 68.83837571638664, 69.34179829069392, 69.34179829069392, 69.323153010164, 68.65192291108765, 68.57734178896806]",71.69721684419225,1.7068372999783605,None
reward-effort-pgACC-TUS,R88533/RE002,B_8,1,2024-07-30_18h02.50.759,2024-07-30 18:03:58,None,None,4,,,1.6367454528808594,1,9,avoid,shifted,reward,None,75,-20,-20,accept,0.455144900130108,success,0,0,"[1.864528052989887, 1.864528052989887, 1.864528052989887, 1.8272374919300898, 1.8458827724599884, 1.8272374919300898, 1.8272374919300898, 1.8085922114001907, 1.864528052989887, 1.9018186140496849, 1.9018186140496849, 1.9577544556393816, 2.0323355777589773, 2.069626138818775, 2.069626138818775, 3.393441056441595, 6.730946271293494, 12.585564357681738, 12.585564357681738, 17.54520897863484, 26.97972092676367, 36.04132726429452, 36.04132726429452, 44.45034878327891, 50.99484224927342, 50.99484224927342, 56.84946033566166, 59.45979960984751, 64.90422152457798, 70.31135287824864, 70.31135287824864, 70.87071129414562, 73.70479393469024, 76.46429545311527, 76.46429545311527, 76.78126522212357, 75.86764647615851, 76.35242376993588, 76.35242376993588, 77.41520476014013, 75.84900119562862, 75.66254839032962, 75.66254839032962, 78.70172911670315, 79.59670258213829, 78.42204990875466, 78.42204990875466, 80.82729109711161, 81.90871736784575, 81.85278152625605, 81.85278152625605, 84.3139585562027, 89.1057956523867, 89.1057956523867, 89.60921822669398, 89.1057956523867, 92.35007446458911, 92.35007446458911, 93.97221387069031, 92.40601030617881, 89.19902205503621, 89.53463710457439, 89.53463710457439, 91.36187459650448, 90.37367472841984, 90.37367472841984, 88.75153532231863, 88.95663340814752, 90.01941439835176, 87.89385241794328, 87.89385241794328, 86.55139221979057, 86.83107142773905, 86.90565254985864, 86.90565254985864, 86.43952053661117, 87.24126759939682, 88.82611644443823, 88.82611644443823, 91.97716885399115, 94.41970060340789, 93.82305162645113, 91.62290852392306, 91.62290852392306, 89.96347855676206, 89.04985981079702, 88.39727499225056, 88.39727499225056, 87.33449400204631, 86.77513558614936, 86.58868278085036, 86.58868278085036, 86.17848660919259, 85.45132066852653, 84.09021518984392, 83.69866429871604, 83.69866429871604, 84.3698943977924, 85.91745268177401, 84.98518865527906, 84.3326038367326, 84.3326038367326, 84.59363776415118, 84.50041136150169, 83.53085677394695, 81.98329848996534, 81.98329848996534, 81.81549096519626, 81.47987591565807]",87.3335918110529,1.801755600143224,None
reward-effort-pgACC-TUS,R88533/RE002,B_8,1,2024-07-30_18h02.50.759,2024-07-30 18:03:58,None,None,4,,,1.6367454528808594,1,10,avoid,shifted,reward,None,75,-80,-89,accept,1.3763741999864578,success,0,0,"[1.9018186140496849, 1.864528052989887, 1.7899469308702918, 1.7899469308702918, 1.7899469308702918, 1.8085922114001907, 1.7899469308702918, 1.8458827724599884, 1.8458827724599884, 1.8831733335197862, 1.8831733335197862, 1.9018186140496849, 1.9763997361692807, 2.8900184821343253, 4.810482376713909, 8.707346007462775, 13.40595670099729, 13.40595670099729, 19.763997361692805, 26.662751157755388, 32.946210696331306, 38.446568452651476, 41.48574917902499, 44.04015261162114, 44.04015261162114, 46.184359872559504, 47.60140119283182, 51.815234592588965, 55.525645418038835, 57.371528190498836, 58.900441193950535, 60.988712613299214, 64.54996119450989, 69.78928502341148, 71.72839419852096, 72.92169215243449, 74.20821650899751, 74.20821650899751, 74.65570324171509, 75.64390310979972, 74.78622020542439, 73.87260145945933, 75.81171063456881, 76.24055208675648, 75.42015974344093, 73.70479393469024, 73.70479393469024, 72.6793035055458, 73.72343921522014, 74.87944660807388, 75.08454469390276, 75.77442007350902, 77.8999820539175, 77.8999820539175, 81.38664951300858, 82.22568713685403, 83.04607948016958, 85.8055809985946, 90.72793505848792, 90.72793505848792, 91.56697268233336, 93.35691961320366, 94.00950443175012, 95.81809664315031, 96.19100225374828, 95.59435327679152, 94.00950443175012, 93.59930826009234, 92.21955750087983, 92.87214231942629, 93.52472713797275, 92.85349703889638, 92.85349703889638, 91.84665189028185, 92.36871974511901, 93.05859512472527, 92.14497637876022, 90.9143878637869, 90.59741809477863, 90.67199921689821, 90.65335393636832, 89.59057294616409, 89.01256924973721, 89.04985981079702, 89.04985981079702, 87.6701090515845, 86.62597334191017, 86.45816581714108, 87.24126759939682, 88.19217690642166, 88.19217690642166, 88.97527868867742, 89.1617314939764, 89.88889743464247, 89.1057956523867, 87.39042984363601, 87.81927129582368, 88.88205228602793, 88.88205228602793, 89.3668295798053, 89.4787012629847, 92.18226693982002, 91.75342548763236, 90.26180304524044, 90.01941439835176, 90.01941439835176, 89.12444093291661, 87.5582373684051]",90.10366344370907,2.0634502000175416,None
reward-effort-pgACC-TUS,R88533/RE002,B_8,1,2024-07-30_18h02.50.759,2024-07-30 18:03:58,None,None,4,,,1.6367454528808594,1,11,avoid,shifted,reward,None,95,-60,-53,accept,1.6444371999241412,success,0,0,"[1.5662035645115053, 1.584848845041404, 1.5475582839816064, 1.5475582839816064, 1.5289130034517076, 1.4729771618620109, 1.4916224423919098, 1.5289130034517076, 1.5475582839816064, 1.5475582839816064, 1.5662035645115053, 1.603494125571303, 1.603494125571303, 1.603494125571303, 1.584848845041404, 1.584848845041404, 1.5662035645115053, 1.8272374919300898, 3.0205354458436173, 3.0205354458436173, 5.220678548371684, 8.725991287992672, 8.725991287992672, 15.02809610709849, 18.68257109095867, 24.68635142158611, 24.68635142158611, 30.690131752213546, 36.63797624125129, 44.6927374301676, 49.18625003787322, 49.18625003787322, 57.52069043473802, 61.80910495661476, 69.50960581546299, 69.50960581546299, 73.27595248250257, 77.26604251590092, 77.26604251590092, 80.82729109711161, 82.7291097111613, 86.96158839144834, 86.96158839144834, 90.54148225318892, 93.28233849108406, 93.82305162645113, 93.82305162645113, 96.61984370593596, 98.14875670938767, 98.59624344210523, 97.81314165984949, 97.81314165984949, 99.88276779866825, 100.66586958092401, 99.56579802965997, 98.81998680846402, 98.81998680846402, 100.77774126410341, 101.76594113218805, 101.54219776582927, 101.54219776582927, 103.91014839312642, 108.10533651235366, 107.7697214628155, 106.68829519208134, 106.68829519208134, 108.64604964772073, 110.71567578653952, 110.71567578653952, 111.44284172720556, 112.2072982289314, 113.02769057224697, 113.02769057224697, 114.63118469781828, 113.69892067132332, 112.43104159529021, 112.46833215634999, 112.46833215634999, 112.80394720588818, 111.75981149621383, 111.72252093515405, 111.72252093515405, 111.62929453250455, 110.41735129806112, 110.41735129806112, 109.95121928481366, 110.00715512640336, 110.43599657859102, 109.96986456534354, 109.96986456534354, 108.9443741361991, 109.39186086891668, 109.3732155883868, 109.3732155883868, 107.5273328159268, 106.50184238678236, 106.59506878943186, 106.40861598413287, 106.40861598413287, 104.65595961432237, 106.70694047261125, 106.24080845936376, 106.24080845936376, 103.18298245246037, 102.28800898702521, 101.84052225430764, 101.52355248529936, 101.52355248529936, 101.95239393748703]",106.75217820242149,1.8208586999680847,None
reward-effort-pgACC-TUS,R88533/RE002,B_8,1,2024-07-30_18h02.50.759,2024-07-30 18:03:58,None,None,4,,,1.6367454528808594,1,12,avoid,shifted,reward,0.204,75,-40,-46,accept,0.4498491999693215,success,0,0,"[1.4170413202723144, 1.4356866008022133, 1.4170413202723144, 1.4170413202723144, 1.454331881332112, 1.454331881332112, 1.4356866008022133, 1.4916224423919098, 1.4916224423919098, 1.5102677229218087, 1.8085922114001907, 1.8085922114001907, 2.796792079484831, 4.4375767661159315, 7.253014126130662, 7.253014126130662, 12.790662443510625, 17.88082402817302, 24.388026933107724, 31.97665610877657, 31.97665610877657, 41.299296373726, 48.83198970780514, 57.48339987367822, 57.48339987367822, 66.69416845544826, 72.45556013918701, 76.0168087203977, 76.0168087203977, 76.76261994159366, 76.87449162477306, 81.29342311035909, 81.29342311035909, 81.66632872095705, 81.57310231830756, 81.74090984307666, 81.74090984307666, 83.68001901818613, 84.76144528892029, 83.51221149341706, 83.51221149341706, 82.30026825897362, 82.15110601473444, 82.63588330851181, 82.63588330851181, 82.4680757837427, 83.10201532175927, 83.54950205447685, 83.54950205447685, 83.69866429871604, 86.36493941449159, 89.90754271517235, 89.90754271517235, 90.70928977795802, 88.95663340814752, 87.59552792946491, 90.48554641159923, 90.48554641159923, 93.78576106539133, 94.49428172552749, 93.50608185744285, 93.50608185744285, 94.04679499280991, 96.56390786434626, 96.28422865639777, 94.96041373877496, 94.96041373877496, 94.69937981135638, 95.96725888738949, 96.17235697321838, 96.17235697321838, 94.92312317771517, 94.60615340870689, 94.62479868923678, 94.62479868923678, 93.72982522380163, 92.6670442335974, 91.86529717081174, 91.86529717081174, 93.07724040525517, 94.69937981135638, 93.93492330963052, 91.82800660975194, 91.82800660975194, 92.76027063624689, 94.08408555386971, 93.22640264949436, 93.22640264949436, 91.99581413452104, 91.77207076816225, 91.86529717081174, 91.06355010802609, 91.06355010802609]",89.76980822351604,1.5485309001524001,None
reward-effort-pgACC-TUS,R88533/RE002,B_8,1,2024-07-30_18h02.50.759,2024-07-30 18:03:58,None,None,4,,,1.6367454528808594,1,13,avoid,shifted,reward,None,50,-100,-97,accept,0.861375099979341,success,0,0,"[4.605384290885022, 4.586739010355123, 4.624029571414921, 4.624029571414921, 4.661320132474718, 4.661320132474718, 4.661320132474718, 4.586739010355123, 4.642674851944819, 4.624029571414921, 4.642674851944819, 4.624029571414921, 4.624029571414921, 5.2393238289015835, 6.451267063345011, 8.464957360574088, 10.75832686575165, 14.8975791433892, 18.775797493608167, 23.474408187142682, 32.274980597254945, 38.24147036682259, 44.93512607705628, 47.19120502117405, 53.62382680398916, 60.764969246940424, 66.28397228379049, 69.90115670659087, 72.828465749785, 73.81666561786963, 75.30828806026155, 75.8303559150987, 75.58796726821004, 74.5624768390656, 74.52518627800579, 74.3200881921769, 74.09634482581812, 73.01491855508398, 73.01491855508398, 72.11994508964884, 71.54194139322198, 71.2622621852735, 71.2622621852735, 70.70290376937652, 70.70290376937652, 70.90800185520541, 71.03851881891471, 70.62832264725692, 70.27406231718885, 69.78928502341148, 69.08076436327532, 68.65192291108765, 68.55869650843816, 68.63327763055776, 68.61463235002785, 68.78243987479694, 69.4909605349331, 69.19263604645471, 68.0552739341309, 67.6823683235329, 67.62643248194321, 66.99249294392665, 66.39584396696988, 66.67552317491837, 67.6823683235329, 67.14165518816584, 67.01113822445654, 65.61274218471414, 63.84144053437374, 61.04464845488891, 60.42935419740224, 60.31748251422285, 60.31748251422285, 60.20561083104346]",69.02292594203972,1.5824508001096547,None
reward-effort-pgACC-TUS,R88533/RE002,B_8,1,2024-07-30_18h02.50.759,2024-07-30 18:03:58,None,None,4,,,1.6367454528808594,1,14,avoid,shifted,reward,None,100,-20,-19,accept,2.832092300057411,success,0,0,"[2.3120147857074604, 2.3120147857074604, 2.3120147857074604, 2.3120147857074604, 2.3120147857074604, 2.2747242246476627, 2.2747242246476627, 2.2560789441177636, 2.2187883830579658, 2.2187883830579658, 2.2374336635878644, 2.2374336635878644, 2.2374336635878644, 2.2374336635878644, 2.2374336635878644, 2.2747242246476627, 2.2933695051775613, 2.2933695051775613, 2.330660066237359, 3.2815693732622018, 6.824172673942987, 6.824172673942987, 13.629700067356076, 21.908204622631175, 30.85793927698263, 30.85793927698263, 41.541685020614686, 48.44043881667727, 57.408818751558634, 62.7786595441695, 62.7786595441695, 72.30639789494782, 76.98636330795244, 80.60354773075282, 88.06165994271238, 88.06165994271238, 91.60426324339316, 94.06544027333982, 94.06544027333982, 95.46383631308223, 99.43528106595069, 101.67271472953855, 101.67271472953855, 103.33214469669956, 105.56957836028742, 109.41050614944659, 109.41050614944659, 111.81574733780353, 112.5429132784696, 114.31421492881, 114.31421492881, 118.58398417015682, 122.83510813097378, 123.04020621680264, 122.74188172832427, 122.74188172832427, 121.49264793282106, 123.78601743799862, 123.9538249627677, 123.9538249627677, 123.89788912117801, 125.6319002104586, 126.00480582105658, 126.00480582105658, 125.31493044145033, 124.88608898926266, 126.00480582105658, 126.00480582105658, 125.96751525999679, 126.86248872543193, 127.2167490555, 127.23539433602991, 127.23539433602991, 126.32177559006486, 127.47778298291858, 127.85068859351657, 127.85068859351657, 127.25403961655981, 126.02345110158649, 125.29628516092042, 125.29628516092042, 125.93022469893698, 125.09118707509155, 123.11478733892226, 123.11478733892226, 123.13343261945215, 123.28259486369136, 122.94697981415317, 122.10794219030771, 122.10794219030771, 120.09425189307863, 118.22972384008874, 116.64487499504735, 116.64487499504735, 115.6193845659029, 115.22783367477503, 114.61253941728837, 114.61253941728837, 114.07182628192129, 115.17189783318533, 117.4279767773031, 117.4279767773031]",120.41702920848145,1.695595399942249,None
reward-effort-pgACC-TUS,R88533/RE002,B_8,1,2024-07-30_18h02.50.759,2024-07-30 18:03:58,None,None,4,,,1.6367454528808594,1,15,avoid,shifted,reward,None,85,-40,-45,accept,1.3077482001390308,success,0,0,"[1.454331881332112, 1.454331881332112, 1.4729771618620109, 1.4729771618620109, 1.4916224423919098, 1.5289130034517076, 1.5289130034517076, 1.5289130034517076, 1.5475582839816064, 1.5102677229218087, 1.5102677229218087, 1.454331881332112, 1.454331881332112, 1.454331881332112, 1.4916224423919098, 1.4916224423919098, 1.4916224423919098, 1.5475582839816064, 1.5289130034517076, 1.5289130034517076, 1.6221394061012018, 1.864528052989887, 2.050980858288876, 2.050980858288876, 2.8900184821343253, 5.29525967049128, 8.371730957924592, 15.177258351337683, 15.177258351337683, 18.924959737847356, 28.30353584438649, 28.30353584438649, 35.89216502005533, 40.64671155517954, 46.89288053269566, 52.169494922657044, 52.169494922657044, 57.68849795950711, 60.26154667263316, 66.30261756432039, 66.30261756432039, 70.77748489149613, 72.08265452858905, 72.08265452858905, 72.08265452858905, 72.49285070024682, 76.48294073364518, 79.5034761794888, 81.38664951300858, 81.38664951300858, 84.63092832521099, 90.52283697265902, 94.96041373877496, 94.75531565294607, 94.75531565294607, 96.99274931653393, 99.3420546633012, 99.93870364025796, 99.93870364025796, 101.0947110331117, 101.93374865695715, 102.66091459762319, 102.66091459762319, 103.64911446570784, 102.66091459762319, 103.76098614888723, 103.49995222146863, 103.49995222146863, 100.77774126410341, 98.52166231998565, 96.95545875547413, 96.95545875547413, 96.45203618116686, 96.32151921745758, 94.75531565294607, 94.75531565294607, 94.62479868923678, 94.55021756711717, 93.48743657691296, 93.48743657691296, 92.87214231942629, 92.4433008672386, 92.35007446458911, 92.35007446458911, 92.555172550418, 92.89078759995618, 93.58066297956245, 93.45014601585315, 93.45014601585315, 93.95356859016042, 95.68757967944101, 96.43339090063698, 96.43339090063698, 94.90447789718526, 96.02319472897919, 98.87592265005372, 99.30476410224139, 99.30476410224139, 98.16740198991756, 96.41474562010707, 96.43339090063698, 96.43339090063698, 95.55706271573172, 94.55021756711717, 94.1959572370491, 94.1959572370491, 94.00950443175012, 93.78576106539133, 94.401055322878, 94.401055322878, 94.02814971228001, 93.11453096631497]",96.47251542371609,1.8575031000655144,None
reward-effort-pgACC-TUS,R88533/RE002,B_8,1,2024-07-30_18h02.50.759,2024-07-30 18:03:58,None,None,4,,,1.6367454528808594,1,16,avoid,shifted,reward,None,50,-20,-22,accept,1.4702922999858856,success,0,0,"[1.2678790760331233, 1.32381491762282, 1.32381491762282, 1.3797507592125164, 1.3797507592125164, 1.4170413202723144, 1.4170413202723144, 1.4356866008022133, 1.5662035645115053, 1.752656369810494, 1.752656369810494, 1.864528052989887, 1.9950450166991793, 2.0323355777589773, 2.0323355777589773, 2.2001431025280667, 2.14420726093837, 2.0882714193486738, 2.0882714193486738, 2.0882714193486738, 1.9950450166991793, 1.9763997361692807, 1.9763997361692807, 1.9018186140496849, 1.8458827724599884, 1.8085922114001907, 1.8085922114001907, 1.7153658087506962, 1.6780752476908984, 1.584848845041404, 1.3797507592125164, 1.3797507592125164, 1.305169637092921, 1.2865243565630222, 1.2678790760331233, 1.2678790760331233, 1.3611054786826176, 2.050980858288876, 4.810482376713909, 4.810482376713909, 7.495402773019347, 9.303994984419537, 11.317685281648615, 11.317685281648615, 14.916224423919097, 17.65708066181423, 22.02007630581057, 29.25444515141133, 29.25444515141133, 37.08546297396886, 45.90468066461103, 53.456019279220065, 53.456019279220065, 59.702188256736186, 68.74514931373714, 70.92664713573531, 70.92664713573531, 72.47420541971692, 76.81855578318336, 81.31206839088898, 85.19028674110794, 85.19028674110794, 85.63777347382552, 84.14615103143362, 84.01563406772432, 84.01563406772432, 84.07156990931401, 82.09517017314474, 80.82729109711161, 80.82729109711161, 79.85773650955687, 78.90682720253203, 76.66939353894416, 76.66939353894416, 75.60661254873993, 74.5065409974759, 73.77937505680984, 72.9589827134943, 72.9589827134943, 72.54878654183652, 72.54878654183652, 72.54878654183652, 72.53014126130661, 71.39277914898278, 70.68425848884662, 70.60967736672703, 70.60967736672703, 69.97573782871046, 69.34179829069392, 69.2858624491042, 69.2858624491042, 69.30450772963411, 69.17399076592481, 68.27901730048967, 68.27901730048967, 67.70101360406281, 66.71281373597817, 66.35855340591009, 66.35855340591009, 67.64507776247311, 67.8315305677721, 67.73830416512261, 67.73830416512261, 68.09256449519069, 68.09256449519069, 67.10436462710604, 66.39584396696988, 66.39584396696988, 66.60094205279877, 66.1534553200812, 66.0602289174317, 66.0602289174317, 67.32810799346483, 68.09256449519069]",72.45403183750425,1.891752100083977,None
reward-effort-pgACC-TUS,R88533/RE002,B_8,1,2024-07-30_18h02.50.759,2024-07-30 18:03:58,None,None,4,,,1.6367454528808594,1,17,avoid,shifted,reward,0.496,80,-100,-81,accept,0.6593539000023156,success,0,0,"[1.3611054786826176, 1.4170413202723144, 1.4170413202723144, 1.4356866008022133, 1.3983960397424156, 1.3797507592125164, 1.3983960397424156, 1.3797507592125164, 1.4170413202723144, 1.4170413202723144, 1.454331881332112, 1.4356866008022133, 1.4356866008022133, 1.3983960397424156, 1.4729771618620109, 1.4729771618620109, 1.3983960397424156, 1.3983960397424156, 1.3983960397424156, 1.3797507592125164, 1.3797507592125164, 1.3611054786826176, 1.454331881332112, 1.4170413202723144, 1.4170413202723144, 1.454331881332112, 1.4356866008022133, 1.4916224423919098, 1.4729771618620109, 1.7340110892805953, 2.517112871536348, 4.362995643996336, 7.0852066013615715, 10.88884382946094, 17.15365808750696, 24.29480053045823, 33.44963327063858, 42.10104343651165, 47.50817479018233, 47.50817479018233, 54.91035116055218, 61.38026350442709, 68.93160211903613, 71.78433004011066, 75.77442007350902, 79.18650641048052, 81.0696797440003, 81.59174759883747, 82.61723802798191, 85.19028674110794, 91.1754217912055, 94.06544027333982, 97.34700964660202, 96.76900595017514, 94.2891836396986, 93.07724040525517, 93.07724040525517, 94.88583261665536, 97.4029454881917, 100.01328476237757, 99.97599420131775, 98.89456793058362, 96.26558337586788, 94.2705383591687, 92.92807816101597, 92.38736502564892, 91.39916515756428, 91.45510099915397, 91.45510099915397, 88.37862971172066, 83.77324542083564, 82.87827195540048, 82.56130218639221, 81.75955512360656, 82.22568713685403, 84.78009056945017, 86.71919974455966, 86.34629413396168, 85.97338852336371, 85.86151684018431, 88.37862971172066, 89.06850509132691, 90.8398067416673, 93.31962905214385, 94.84854205559556, 94.84854205559556, 94.64344396976668, 94.43834588393779, 94.96041373877496, 96.82494179176484, 96.82494179176484, 98.48437175892585, 99.3234093827713, 97.4588813297814, 93.22640264949436, 91.45510099915397, 91.71613492657255, 91.75342548763236, 91.06355010802609, 91.60426324339316, 90.33638416736004, 90.13128608153114, 90.16857664259095, 90.11264080100125, 90.56012753371883, 90.24315776471055, 90.41096528947963, 91.90258773187155, 92.29413862299943, 91.54832740180346, 90.54148225318892, 91.52968212127357, 91.56697268233336, 90.56012753371883, 91.64155380445295, 91.36187459650448, 90.16857664259095, 88.62101835860933, 87.59552792946491, 86.10390548707299, 86.23442245078229, 86.58868278085036, 86.58868278085036, 86.58868278085036]",90.98288073103957,2.6160172999370843,None
reward-effort-pgACC-TUS,R88533/RE002,B_8,1,2024-07-30_18h02.50.759,2024-07-30 18:03:58,None,None,4,,,1.6367454528808594,1,18,avoid,shifted,reward,None,75,-60,-56,accept,0.7773719998076558,success,0,0,"[6.898753796062583, 6.936044357122381, 7.029270759771874, 7.0852066013615715, 7.159787723481167, 7.159787723481167, 7.159787723481167, 7.197078284540964, 7.197078284540964, 7.141142442951268, 7.159787723481167, 7.253014126130662, 7.253014126130662, 7.253014126130662, 7.402176370369852, 7.588629175668841, 7.868308383617324, 7.868308383617324, 8.092051749976111, 8.371730957924592, 8.78192712958237, 9.620964753427819, 9.620964753427819, 10.609164621512459, 12.175368186023963, 13.517828384176683, 13.517828384176683, 13.89073399477466, 14.021250958483952, 13.983960397424156, 13.741571750535469, 13.088986931989007, 13.088986931989007, 12.865243565630221, 13.088986931989007, 14.226349044312839, 14.226349044312839, 15.587454522995458, 17.52656369810494, 17.52656369810494, 18.83173333519786, 20.789487790837242, 23.418472345552985, 23.418472345552985, 25.786422972850144, 28.564569771805072, 30.168063897376374, 31.58510521764869, 31.58510521764869, 34.139508650244835, 35.836229178465636, 38.94999102695875, 43.77911868420255, 43.77911868420255, 52.50510997219523, 59.5343807319671, 68.39088898366906, 68.39088898366906, 74.78622020542439, 79.14921584942071, 82.6731738695716, 82.6731738695716, 89.60921822669398, 93.20775736896447, 97.34700964660202, 97.34700964660202, 100.42348093403533, 101.97103921801694, 103.53724278252845, 106.61371406996176, 105.68145004346681, 105.68145004346681, 103.96608423471612, 106.66964991155146, 106.35268014254318, 106.35268014254318, 101.46761664370968, 100.29296397032603, 99.95734892078787, 98.24198311203716, 98.24198311203716, 96.60119842540605, 95.8553872042101, 95.61299855732142, 94.06544027333982, 94.06544027333982, 93.84169690698103, 94.08408555386971, 94.2518930786388, 94.41970060340789, 94.41970060340789, 94.02814971228001, 93.54337241850264, 93.59930826009234, 93.59930826009234, 93.72982522380163, 92.08904053717053, 91.43645571862407, 91.45510099915397, 91.45510099915397, 91.49239156021378, 88.78882588337844, 85.41403010746673, 85.41403010746673, 84.16479631196351, 84.91060753315946, 85.05976977739866, 85.05976977739866, 83.38169452970776, 83.40033981023765, 84.81738113050997, 88.32269387013096, 88.32269387013096, 90.72793505848792, 89.77702575146307, 89.77702575146307, 88.65830891966914, 89.3481842992754, 90.16857664259095, 88.04301466218247, 88.04301466218247, 87.22262231886693]",93.39962332022371,2.039477000012994,None
reward-effort-pgACC-TUS,R88533/RE002,B_8,1,2024-07-30_18h02.50.759,2024-07-30 18:03:58,None,None,4,,,1.6367454528808594,1,19,avoid,shifted,reward,None,70,-40,-34,accept,0.60910449991934,success,0,0,"[2.964599604253921, 2.9832448847838196, 2.9832448847838196, 2.927309043194123, 2.908663762664224, 2.908663762664224, 2.927309043194123, 2.927309043194123, 2.8527279210745276, 2.8527279210745276, 2.9459543237240218, 2.9459543237240218, 2.927309043194123, 2.927309043194123, 3.001890165313718, 3.337505214851898, 3.7477013865096733, 3.7477013865096733, 4.679965413004617, 6.134297294336729, 8.166632872095708, 11.280394720588818, 11.280394720588818, 17.17230336803686, 21.236974523554817, 28.415407527565883, 28.415407527565883, 35.12770851832948, 43.10788858512619, 48.981151952044335, 57.42746403208853, 57.42746403208853, 65.05338376881717, 70.27406231718885, 72.43691485865712, 72.43691485865712, 76.25919736728639, 79.85773650955687, 81.42394007406838, 81.42394007406838, 82.24433241738393, 83.97834350666452, 84.64957360574088, 82.95285307752009, 82.95285307752009, 82.24433241738393, 82.43078522268291, 80.90187221923121, 80.90187221923121, 81.01374390241061, 80.8645816581714, 79.80180066796717, 79.80180066796717, 80.11877043697545, 80.15606099803524, 78.36611406716496, 78.36611406716496, 78.38475934769487, 78.72037439723304, 79.48483089895889, 79.3916044963094, 79.3916044963094, 80.32386852280435, 82.18839657579423, 82.18839657579423, 82.598592747452, 82.50536634480251, 84.22073215355321, 86.40222997555138, 86.40222997555138, 84.51905664203159, 84.258022714613, 86.0293243649534, 86.0293243649534, 89.32953901874549, 90.82116146113741, 88.63966363913924, 88.63966363913924, 89.04985981079702, 88.75153532231863, 86.57003750032047, 86.57003750032047, 84.51905664203159, 84.258022714613, 83.97834350666452, 83.34440396864797, 83.34440396864797, 82.56130218639221, 81.89007208731584, 81.38664951300858, 81.38664951300858, 81.59174759883747, 82.00194377049525, 81.34935895194879, 81.34935895194879, 80.80864581658172, 82.28162297844372]",82.75692480178786,1.6052243998274207,None
reward-effort-pgACC-TUS,R88533/RE002,B_8,1,2024-07-30_18h02.50.759,2024-07-30 18:03:58,None,None,4,,,1.6367454528808594,1,20,avoid,shifted,reward,None,85,-20,-22,accept,1.9791646001394838,success,0,0,"[6.973334918182178, 6.973334918182178, 6.376685941225414, 6.376685941225414, 6.3021048191058195, 6.3021048191058195, 6.264814258046021, 6.264814258046021, 6.003780330627436, 6.0224256111573355, 5.985135050097538, 5.985135050097538, 5.929199208507842, 5.929199208507842, 5.817327525328448, 5.817327525328448, 5.780036964268651, 5.817327525328448, 5.929199208507842, 5.929199208507842, 6.656365149173897, 6.917399076592481, 6.917399076592481, 7.197078284540964, 8.073406469446212, 9.919289241906199, 9.919289241906199, 11.821107855955885, 15.345065876106773, 18.067276833472008, 22.747242246476624, 22.747242246476624, 33.15130878216019, 41.11284356842702, 48.32856713349788, 48.32856713349788, 58.37837333911337, 63.35666324059637, 70.34864343930845, 70.34864343930845, 72.34368845600763, 73.74208449575003, 76.91178218583285, 76.91178218583285, 78.88818192200213, 78.85089136094233, 78.53392159193405, 80.56625716969303, 80.56625716969303, 81.16290614664979, 81.83413624572616, 81.16290614664979, 81.16290614664979, 79.93231763167647, 81.49852119618797, 82.61723802798191, 82.61723802798191, 82.82233611381079, 83.38169452970776, 84.74280000839038, 84.74280000839038, 90.39232000894974, 94.90447789718526, 98.80134152793413, 99.69631499336927, 99.69631499336927, 100.8709676667529, 102.23207314543552, 109.3732155883868, 109.3732155883868, 111.21909836084679, 111.48013228826537, 109.85799288216415, 109.85799288216415, 111.51742284932516, 111.53606812985505, 107.75107618228559, 107.75107618228559, 103.59317862411814, 102.53039763391389, 103.03382020822116, 102.23207314543552, 102.23207314543552, 101.41168080211997, 102.17613730384582, 101.89645809589733, 101.89645809589733, 101.22522799682099, 100.60993373933431, 100.46077149509513, 101.43032608264986, 101.43032608264986, 101.038775191522, 100.9641940694024, 101.33709968000038, 101.39303552159006, 101.39303552159006, 100.46077149509513, 99.93870364025796, 99.93870364025796, 99.60308859071978, 99.69631499336927, 99.80818667654866, 99.69631499336927, 99.69631499336927, 99.64037915177958, 98.93185849164342, 98.13011142885777, 98.80134152793413, 98.80134152793413, 98.95050377217332, 99.52850746860018, 99.52850746860018, 99.82683195707857, 99.82683195707857, 98.59624344210523, 98.59624344210523, 98.11146614832786, 97.5148171713711, 97.25378324395251, 98.11146614832786, 98.11146614832786, 98.22333783150727]",101.51483130569667,2.0347094000317156,None
reward-effort-pgACC-TUS,R88533/RE002,B_8,1,2024-07-30_18h02.50.759,2024-07-30 18:03:58,None,None,4,,,1.6367454528808594,1,21,avoid,shifted,reward,None,70,-80,-81,accept,0.47331309993751347,success,0,0,"[1.920463894579584, 1.9391091751094829, 1.9391091751094829, 1.9577544556393816, 1.920463894579584, 1.920463894579584, 1.8831733335197862, 1.8831733335197862, 1.9018186140496849, 1.9391091751094829, 1.8831733335197862, 1.920463894579584, 1.920463894579584, 1.9763997361692807, 2.461177029946651, 2.7035656768353364, 3.188342970612707, 3.188342970612707, 4.28841452187674, 7.010625479241976, 9.620964753427819, 9.620964753427819, 15.662035645115052, 19.372446470564928, 27.483143501070938, 34.43783313872322, 40.72129267729914, 40.72129267729914, 50.34225743072695, 58.35972805858347, 66.43313452802968, 70.77748489149613, 74.30144291164702, 74.30144291164702, 79.95096291220636, 81.92736264837565, 82.598592747452, 84.61228304468108, 88.95663340814752, 88.95663340814752, 90.29909360630025, 90.44825585053943, 90.59741809477863, 92.79756119730669, 94.82989677506566, 96.63848898646586, 96.56390786434626, 96.56390786434626, 95.27738350778324, 92.7789159167768, 90.28044832577035, 88.86340700549803, 88.86340700549803, 86.1411960481328, 85.91745268177401, 85.71235459594511, 85.8988074012441, 85.52590179064613, 85.52590179064613, 84.57499248362129, 84.3326038367326, 84.258022714613, 84.38853967832229, 84.38853967832229, 83.75460014030574, 82.6545285890417, 82.8409813943407, 83.10201532175927, 81.77820040413646, 80.90187221923121, 80.90187221923121, 80.80864581658172, 81.34935895194879, 80.64083829181263, 79.91367235114657, 79.68992898478778, 79.68992898478778, 79.44754033789908, 79.54076674054859, 79.61534786266819, 79.89502707061666, 80.10012515644556, 80.10012515644556, 79.89502707061666, 81.0323891829405, 80.51032132810333, 80.51032132810333, 81.18155142717968, 81.18155142717968, 81.2001967077096, 81.0323891829405]",84.7673332722455,1.6511656998191029,None
reward-effort-pgACC-TUS,R88533/RE002,B_8,1,2024-07-30_18h02.50.759,2024-07-30 18:03:58,None,None,4,,,1.6367454528808594,1,22,avoid,shifted,reward,None,95,-80,-75,accept,0.5175036999862641,success,0,0,"[1.8458827724599884, 1.8458827724599884, 1.8272374919300898, 1.8272374919300898, 1.864528052989887, 1.864528052989887, 1.7713016503403929, 1.8272374919300898, 1.864528052989887, 1.864528052989887, 1.864528052989887, 1.864528052989887, 1.8458827724599884, 1.864528052989887, 1.9391091751094829, 2.6662751157755387, 4.008735313928257, 4.008735313928257, 7.308949967720359, 14.039896239013853, 20.02503128911139, 30.298580861085668, 30.298580861085668, 37.104108254498755, 44.375767661159315, 52.59833637484472, 58.639407266531954, 62.48033505569113, 62.48033505569113, 68.24172673942988, 71.35548858792299, 76.94907274689264, 81.12561558559, 85.20893202163785, 91.62290852392306, 91.62290852392306, 97.29107380501232, 99.69631499336927, 101.28116383841068, 102.04562034013654, 106.50184238678236, 110.06309096799305, 111.29367948296638, 111.29367948296638, 114.70576581993785, 115.19054311371524, 114.40744133145948, 112.89717360853768, 112.39375103423039, 112.31916991211082, 113.30736978019544, 113.54975842708413, 113.92266403768213, 114.46337717304917, 113.81079235450271, 113.81079235450271, 110.9394191528983, 110.19360793170235, 110.6783852254797, 110.69703050600961, 110.26818905382194, 109.70883063792496, 109.70883063792496, 109.03760053884861, 108.92572885566922, 109.76476647951465, 109.03760053884861, 107.4154611327474, 107.4154611327474, 107.84430258493506, 106.07300093459469, 103.10840133034075, 102.73549571974279, 102.77278628080259, 102.4558165117943, 101.74729585165814, 101.78458641271794, 101.67271472953855, 101.67271472953855, 101.44897136317977, 101.18793743576117, 101.05742047205189, 100.77774126410341, 99.71496027389917, 98.59624344210523, 98.09282086779797, 96.82494179176484, 94.43834588393779, 93.84169690698103, 93.84169690698103, 94.00950443175012, 94.3264742007584, 92.81620647783659, 92.555172550418, 94.3078289202285, 93.41285545479336, 93.41285545479336, 91.67884436551276, 93.72982522380163, 95.25873822725333, 94.08408555386971, 95.09093070248426, 95.09093070248426, 99.43528106595069, 100.25567340926625, 100.83367710569311, 100.83367710569311, 101.89645809589733, 101.69136001006845, 102.90330324451187, 106.22216317883388, 106.50184238678236, 106.01706509300499, 106.01706509300499, 110.808902189189, 112.46833215634999, 110.95806443342819, 109.54102311315587, 109.05624581937852, 108.85114773354962, 108.98166469725892, 108.98166469725892, 108.57146852560113, 108.25449875659285, 108.96301941672901, 108.96301941672901, 108.96301941672901, 108.8697930140795, 108.8697930140795, 108.34772515924236, 108.9443741361991, 107.04255552214943, 105.08480106651004, 106.27809902042358, 106.27809902042358, 106.0357103735349, 105.04751050545025, 107.15442720532882, 107.5646233769866, 105.40177083551833, 104.20847288160479, 105.34583499392862, 105.19667274968944, 105.19667274968944, 103.44401637987895, 103.27620885510986, 103.31349941616965, 106.93068383897004, 107.4154611327474, 105.56957836028742, 105.56957836028742, 107.95617426811448, 110.51057770071063, 111.29367948296638, 110.5478682617704, 109.22405334414759, 111.40555116614577, 111.40555116614577]",106.81271006398086,2.955668699927628,None
reward-effort-pgACC-TUS,R88533/RE002,B_8,1,2024-07-30_18h02.50.759,2024-07-30 18:03:58,None,None,4,,,1.6367454528808594,1,23,avoid,shifted,reward,0.114,55,-80,-88,accept,0.38869439996778965,success,0,0,"[1.9018186140496849, 1.8831733335197862, 1.8458827724599884, 1.920463894579584, 1.920463894579584, 1.920463894579584, 1.920463894579584, 1.9391091751094829, 1.920463894579584, 1.920463894579584, 1.864528052989887, 1.920463894579584, 2.610339274185842, 5.705455842149055, 10.273549571974279, 18.235084358241096, 29.869739408897996, 42.62311129134883, 42.62311129134883, 68.27901730048967, 68.27901730048967, 73.92853730104903, 80.8645816581714, 84.61228304468108, 86.60732806138026, 90.56012753371883, 90.63470865583842, 87.93114297900308, 88.54643723648975, 92.555172550418, 97.42159076872161, 96.86223235282463, 93.89763274857073, 94.66208925029657, 94.04679499280991, 94.04679499280991, 91.84665189028185, 90.7652256195477, 90.9516784248467, 90.8398067416673, 89.4787012629847, 91.23135763279518, 89.55328238510428, 89.55328238510428, 85.07841505792855, 82.43078522268291, 81.83413624572616, 81.64768344042716, 80.9205174997611, 80.9205174997611, 80.11877043697545, 77.97456317603708, 76.89313690530295, 76.63210297788436, 76.81855578318336, 76.81855578318336, 76.35242376993588, 74.65570324171509, 73.89124673998924, 73.89124673998924, 72.58607710289631, 72.26910733388803, 72.26910733388803, 71.33684330739308, 70.77748489149613, 70.81477545255592, 70.49780568354764, 69.95709254818057, 69.58418693758259, 69.43502469334341, 69.4723152544032, 69.21128132698462, 68.98753796062583]",81.14874954476596,1.4155763001181185,None
reward-effort-pgACC-TUS,R88533/RE002,B_8,1,2024-07-30_18h02.50.759,2024-07-30 18:03:58,None,None,4,,,1.6367454528808594,1,24,avoid,shifted,reward,None,100,-80,-77,accept,2.069187599932775,success,0,0,"[1.6221394061012018, 1.5475582839816064, 1.5475582839816064, 1.5662035645115053, 1.5662035645115053, 1.5475582839816064, 1.584848845041404, 1.6221394061012018, 1.584848845041404, 1.603494125571303, 1.603494125571303, 1.584848845041404, 1.5102677229218087, 1.6780752476908984, 2.1628525414682693, 2.1628525414682693, 2.610339274185842, 3.505312739620988, 6.059716172217133, 6.059716172217133, 8.688700726932874, 12.641500199271436, 16.967205282207974, 16.967205282207974, 18.552054127249377, 21.814978219981683, 25.65590600914085, 29.571414920419613, 29.571414920419613, 35.14635379885937, 40.21787010299187, 45.83009954249143, 52.57969109431482, 58.43430918070307, 58.43430918070307, 64.92286680510787, 73.29459776303247, 78.06778957868657, 81.27477782982918, 84.09021518984392, 84.09021518984392, 86.79378086667924, 93.52472713797275, 94.53157228658728, 95.01634958036466, 98.72676040581453, 100.852322386223, 102.79143156133247, 107.91888370705468, 107.91888370705468, 109.1308269414981, 113.40059618284495, 115.54480344378331, 116.92455420299584, 120.18747829572814, 120.18747829572814, 121.39942153017157, 122.03336106818811, 123.04020621680264, 123.28259486369136, 122.07065162924793, 123.43175710793052, 123.37582126634084, 123.37582126634084, 123.46904766899034, 123.37582126634084, 123.80466271852852, 125.50138324674931, 126.63874535907314, 126.56416423695356, 125.7251266131081, 125.53867380780912, 126.78790760331233, 126.39635671218446, 124.83015314767296, 123.05885149733255, 121.26890456646227, 121.26890456646227, 121.92148938500873, 121.77232714076953, 118.9382445002249, 119.12469730552391, 120.65361030897562, 119.59082931877137, 118.32295024273824, 118.41617664538775, 117.96868991267017, 117.93139935161037, 120.15018773466835, 118.47211248697744, 117.07371644723503, 115.52615816325343, 115.54480344378331, 115.54480344378331, 114.42608661198939, 112.37510575370051, 111.53606812985505, 110.34277017594152, 109.93257400428375]",119.15015528470896,1.8812378000002354,None
reward-effort-pgACC-TUS,R88533/RE002,B_8,1,2024-07-30_18h02.50.759,2024-07-30 18:03:58,None,None,4,,,1.6367454528808594,1,25,avoid,shifted,reward,None,55,-100,-115,accept,1.4848414999432862,success,0,0,"[1.6967205282207976, 1.752656369810494, 1.6780752476908984, 1.7153658087506962, 1.7340110892805953, 1.7153658087506962, 1.7340110892805953, 1.6967205282207976, 1.7153658087506962, 1.6780752476908984, 1.7340110892805953, 1.6967205282207976, 1.6967205282207976, 1.7340110892805953, 1.7153658087506962, 1.7340110892805953, 1.7713016503403929, 2.3120147857074604, 3.8968636307488644, 7.383531089839954, 16.165458219422323, 22.076012147400263, 29.04934706558244, 35.20228964044907, 40.85180964100843, 46.948816374285364, 54.79847947737279, 60.46664475846204, 66.33990812538019, 70.74019433043632, 76.57616713629467, 80.84593637764151, 83.21388700493867, 83.51221149341706, 83.12066060228918, 84.2766679951429, 86.0852602065431, 84.81738113050997, 82.56130218639221, 80.67812885287242, 78.86953664147222, 77.07958971060194, 75.69983895138942, 75.69983895138942, 72.45556013918701, 72.45556013918701, 72.6793035055458, 71.2809074658034, 70.75883961096622, 70.70290376937652, 70.36728871983836, 70.32999815877855, 70.34864343930845, 70.34864343930845, 70.36728871983836, 70.32999815877855, 70.57238680566724, 71.59787723481166, 71.63516779587147, 71.69110363746117, 72.6979487860757, 72.58607710289631, 72.32504317547773, 72.36233373653752, 72.00807340646944, 71.41142442951268, 70.59103208619713, 70.59103208619713, 70.68425848884662, 70.23677175612906, 69.84522086500118, 69.71470390129188, 69.17399076592481, 67.7196588845927, 66.41448924749979]",73.75319232244873,1.6817294999491423,None
reward-effort-pgACC-TUS,R88533/RE002,B_8,1,2024-07-30_18h02.50.759,2024-07-30 18:03:58,None,None,4,,,1.6367454528808594,1,26,avoid,shifted,reward,None,65,-100,-106,accept,1.8917630999349058,success,0,0,"[1.6594299671609996, 1.6221394061012018, 1.6221394061012018, 1.6594299671609996, 1.5475582839816064, 1.5662035645115053, 1.5662035645115053, 1.584848845041404, 1.584848845041404, 1.6407846866311009, 1.6967205282207976, 1.9018186140496849, 2.2187883830579658, 3.188342970612707, 4.027380594458156, 5.313904951021179, 6.264814258046021, 7.290304687190459, 7.737791419908032, 8.353085677394695, 8.76328184905247, 9.005670495941155, 9.509093070248426, 10.292194852504178, 11.783817294896087, 14.002605677954053, 17.377401453865748, 22.094657427930166, 31.398652412349705, 40.57213043305995, 47.433593668062734, 58.17327525328449, 64.32621782815112, 69.62147749864239, 70.16219063400946, 70.55374152513734, 72.19452621176843, 75.00996357178316, 74.84215604701407, 73.87260145945933, 73.87260145945933, 73.76072977627994, 73.20137136038298, 73.25730720197267, 73.63021281257065, 75.23370693814195, 78.36611406716496, 80.02554403432596, 80.75270997499202, 78.88818192200213, 78.60850271405366, 80.26793268121465, 81.92736264837565, 82.18839657579423, 84.3326038367326, 89.79567103199298, 89.57192766563419, 85.02247921633887, 82.9342077969902, 82.41213994215302, 82.22568713685403, 81.70361928201686, 81.79684568466635, 81.81549096519626, 81.85278152625605, 81.44258535459828, 80.41709492545384, 79.2610875326001, 78.75766495829284, 78.58985743352375, 78.86953664147222, 78.90682720253203, 78.55256687246394, 77.88133677338759, 77.34062363802052, 76.83720106371325, 77.06094443007204, 77.48978588225971, 78.16101598133608, 78.77631023882273, 78.77631023882273, 78.64579327511343, 77.88133677338759]",79.0853458459034,1.830684200162068,None
reward-effort-pgACC-TUS,R88533/RE002,B_8,1,2024-07-30_18h02.50.759,2024-07-30 18:03:58,None,None,4,,,1.6367454528808594,1,27,avoid,shifted,reward,None,90,-20,-22,accept,0.4775345998350531,success,0,0,"[1.6780752476908984, 1.6780752476908984, 1.6780752476908984, 1.6407846866311009, 1.6967205282207976, 1.6967205282207976, 1.6967205282207976, 1.6967205282207976, 1.6967205282207976, 1.6594299671609996, 1.6407846866311009, 1.7153658087506962, 1.7153658087506962, 1.6407846866311009, 1.6780752476908984, 1.6780752476908984, 1.7713016503403929, 1.7713016503403929, 1.864528052989887, 1.864528052989887, 2.0323355777589773, 2.2747242246476627, 2.722210957365235, 2.722210957365235, 3.318859934321999, 3.7663466670395724, 4.232478680287044, 4.232478680287044, 5.146097426252089, 5.313904951021179, 5.332550231551077, 5.257969109431482, 5.257969109431482, 5.127452145722191, 4.624029571414921, 4.213833399757145, 4.213833399757145, 4.027380594458156, 3.6171844228003813, 3.169697690082808, 2.610339274185842, 2.610339274185842, 2.1255619804084716, 1.920463894579584, 1.864528052989887, 1.864528052989887, 2.1255619804084716, 2.8527279210745276, 3.6731202643900778, 4.586739010355123, 4.586739010355123, 5.780036964268651, 6.6190745881141, 7.3462405287801555, 7.3462405287801555, 8.297149835804998, 9.9379345224361, 12.883888846160122, 12.883888846160122, 16.295975183131613, 18.775797493608167, 27.017011487823467, 27.017011487823467, 36.09726310588422, 48.0675332060793, 57.986822447985496, 57.986822447985496, 68.29766258101957, 73.35053360462217, 78.31017822557527, 78.31017822557527, 82.6918191501015, 85.13435089951825, 86.86836198879885, 86.86836198879885, 90.39232000894974, 89.62786350722388, 90.07535023994146, 90.07535023994146, 91.30593875491478, 91.97716885399115, 93.00265928313559, 93.00265928313559, 94.2891836396986, 94.3264742007584, 94.73667037241617, 94.73667037241617, 95.03499486089456, 98.70811512528464, 97.99959446514848, 97.99959446514848, 97.5148171713711, 99.88276779866825, 101.18793743576117, 101.18793743576117, 101.69136001006845, 101.35574496053027, 102.04562034013654, 104.54408793114298, 104.54408793114298, 108.85114773354962, 110.8461927502488, 111.03264555554779, 111.03264555554779, 112.11407182628193, 112.39375103423039, 110.65973994494982, 110.65973994494982, 108.77656661143003, 106.78152159473085, 104.04066535683572, 104.04066535683572, 103.18298245246037, 102.5676881949737, 102.64226931709331, 103.68640502676763, 103.68640502676763, 103.38808053828924, 101.87781281536743, 100.8150318251632, 100.8150318251632, 100.75909598357352, 101.20658271629108, 101.41168080211997, 101.41168080211997, 101.31845439947047, 101.31845439947047, 101.93374865695715, 101.46761664370968, 101.46761664370968, 101.26251855788078, 101.0947110331117, 100.57264317827452, 100.8709676667529, 100.8709676667529, 101.78458641271794, 101.91510337642724, 101.05742047205189, 101.05742047205189, 100.75909598357352, 100.18109228714664, 99.90141307919816, 99.90141307919816]",102.01945680132842,2.3691361001692712,None
reward-effort-pgACC-TUS,R88533/RE002,B_8,1,2024-07-30_18h02.50.759,2024-07-30 18:03:58,None,None,4,,,1.6367454528808594,1,28,avoid,shifted,reward,None,85,-80,-87,accept,0.3987908000126481,success,0,0,"[1.5289130034517076, 1.4916224423919098, 1.5289130034517076, 1.5662035645115053, 1.584848845041404, 1.5662035645115053, 1.5662035645115053, 1.7340110892805953, 2.2187883830579658, 3.9527994723385613, 6.78688211288319, 6.78688211288319, 10.161677888794886, 17.15365808750696, 57.856305484276206, 57.856305484276206, 61.34297294336729, 71.31819802686319, 76.2032615256967, 76.2032615256967, 83.34440396864797, 86.30900357290187, 90.37367472841984, 94.62479868923678, 94.62479868923678, 97.49617189084121, 100.40483565350542, 100.49806205615492, 100.49806205615492, 101.13200159417148, 104.69325017538218, 109.65289479633526, 109.65289479633526, 109.70883063792496, 108.64604964772073, 109.22405334414759, 109.83934760163424, 109.83934760163424, 109.76476647951465, 109.09353638043831, 106.48319710625248, 105.02886522492034, 106.53913294784216, 106.53913294784216, 103.10840133034075, 101.44897136317977, 102.4558165117943, 103.10840133034075, 103.10840133034075, 101.35574496053027, 100.55399789774462, 100.38619037297553, 100.38619037297553, 100.29296397032603, 99.52850746860018, 99.0810207358826, 98.35385479521655, 97.16055684130302, 97.16055684130302, 97.99959446514848, 99.39799050489088, 97.6453341350804, 97.6453341350804, 95.35196462990282, 94.73667037241617, 94.68073453082647, 94.55021756711717, 93.63659882115213, 92.9094328804861, 92.9094328804861, 93.52472713797275, 95.7435155210307, 96.06048529003898, 94.86718733612547, 94.64344396976668, 94.64344396976668, 93.02130456366548, 92.4433008672386, 92.33142918405922, 92.85349703889638, 93.72982522380163]",99.78258891853304,1.4878263999707997,None
reward-effort-pgACC-TUS,R88533/RE002,B_8,1,2024-07-30_18h02.50.759,2024-07-30 18:03:58,None,None,4,,,1.6367454528808594,1,29,avoid,shifted,reward,None,60,-60,-63,accept,0.4061666999477893,success,0,0,"[1.7153658087506962, 1.6780752476908984, 1.6780752476908984, 1.6967205282207976, 1.6967205282207976, 1.6780752476908984, 1.6967205282207976, 1.6967205282207976, 1.6967205282207976, 1.7153658087506962, 1.7713016503403929, 2.0882714193486738, 2.0882714193486738, 3.1324071290230107, 3.915508911278763, 4.586739010355123, 4.586739010355123, 4.940999340423201, 6.339395380165616, 7.514048053549245, 7.514048053549245, 8.42766679951429, 9.41586666759893, 10.180323169324785, 10.180323169324785, 14.8975791433892, 18.45882772459988, 27.09159260994306, 27.09159260994306, 38.0923081225834, 48.34721241402778, 59.16147512136912, 67.62643248194321, 67.62643248194321, 72.38097901706743, 73.48105056833145, 76.2032615256967, 80.11877043697545, 80.11877043697545, 81.62903815989726, 81.98329848996534, 82.03923433155505, 82.03923433155505, 85.33944898534715, 85.82422627912452, 84.3326038367326, 84.3326038367326, 84.2020868730233, 83.90376238454492, 83.77324542083564, 83.77324542083564, 83.69866429871604, 82.598592747452, 82.15110601473444, 82.00194377049525, 81.40529479353847, 81.40529479353847, 79.3916044963094, 78.42204990875466, 78.42204990875466, 77.7881103707381, 78.32882350610517, 78.16101598133608, 78.16101598133608, 77.35926891855043, 76.94907274689264, 77.97456317603708, 81.0510344634704, 81.0510344634704, 81.16290614664979, 81.21884198823949, 81.0510344634704, 81.0510344634704, 81.12561558559, 80.79000053605182, 80.67812885287242, 80.67812885287242, 80.47303076704353, 80.47303076704353, 79.95096291220636, 79.95096291220636, 79.87638179008677, 80.93916278029101, 81.21884198823949, 81.21884198823949, 81.21884198823949, 80.65948357234252, 80.67812885287242, 80.77135525552191, 80.23064212015485, 79.78315538743728, 79.78315538743728, 79.70857426531768, 78.77631023882273]",80.16959386293598,1.5646752999164164,None
reward-effort-pgACC-TUS,R88533/RE002,B_8,1,2024-07-30_18h02.50.759,2024-07-30 18:03:58,None,None,4,,,1.6367454528808594,1,30,avoid,shifted,reward,None,55,-20,-18,accept,1.2368174998555332,success,0,0,"[6.730946271293494, 6.451267063345011, 6.451267063345011, 6.152942574866628, 5.79868224479855, 5.79868224479855, 5.612229439499561, 5.257969109431482, 5.257969109431482, 5.202033267841785, 5.127452145722191, 5.034225743072696, 5.034225743072696, 4.866418218303606, 4.605384290885022, 4.493512607705628, 4.493512607705628, 4.381640924526235, 4.344350363466437, 4.362995643996336, 4.325705082936539, 4.325705082936539, 4.232478680287044, 4.195188119227247, 4.195188119227247, 4.251123960816943, 4.922354059893302, 6.824172673942987, 6.824172673942987, 9.341285545479336, 15.848488450414042, 20.34200105811967, 28.63915089392467, 28.63915089392467, 37.719402511985415, 42.84685465770761, 47.396303107002936, 47.396303107002936, 53.77298904822835, 58.13598469222468, 59.83270522044548, 59.83270522044548, 64.04653862020263, 69.3977341322836, 70.66561320831673, 70.66561320831673, 71.46736027110238, 71.89620172329005, 72.6047223834262, 75.14048053549246, 75.14048053549246, 77.84404621232778, 77.54572172384941, 77.97456317603708, 77.97456317603708, 79.33566865471971, 79.48483089895889, 78.49663103087425, 78.49663103087425, 77.26604251590092, 76.33377848940599, 75.75577479297912, 75.75577479297912, 75.02860885231306, 74.95402773019347, 74.39466931429651, 73.94718258157893, 73.94718258157893, 73.72343921522014, 73.33188832409226, 73.48105056833145, 73.48105056833145, 73.72343921522014, 73.64885809310054, 73.61156753204074, 73.61156753204074, 74.20821650899751, 74.4133145948264, 74.80486548595428, 75.38286918238114, 75.14048053549246, 75.14048053549246, 74.93538244966356, 74.99131829125326, 74.99131829125326, 74.63705796118518, 73.55563169045105, 72.77252990819531, 72.39962429759731, 72.39962429759731, 72.34368845600763, 72.26910733388803, 72.06400924805915, 71.37413386845289, 71.37413386845289, 71.44871499057248, 72.10129980911894, 72.51149598077671, 72.51149598077671, 72.47420541971692, 73.59292225151086, 73.59292225151086, 74.11499010634802]",74.02818257076618,1.699124800041318,None
reward-effort-pgACC-TUS,R88533/RE002,B_8,1,2024-07-30_18h02.50.759,2024-07-30 18:03:58,None,None,4,,,1.6367454528808594,1,31,avoid,shifted,reward,0.342,100,-100,-89,accept,1.2211388000287116,success,0,0,"[1.8272374919300898, 1.8085922114001907, 1.7713016503403929, 1.7713016503403929, 1.7340110892805953, 1.752656369810494, 1.7713016503403929, 1.7340110892805953, 1.752656369810494, 1.8272374919300898, 1.8085922114001907, 1.7340110892805953, 1.8272374919300898, 1.8458827724599884, 1.752656369810494, 1.752656369810494, 1.752656369810494, 1.7713016503403929, 1.7899469308702918, 1.7713016503403929, 1.7899469308702918, 1.864528052989887, 3.1510524095529098, 6.395331221755312, 11.205813598469222, 17.15365808750696, 22.00143102528067, 31.156263765461016, 36.78713848549048, 42.23156040022095, 46.83694469110597, 55.13409452691097, 59.4784448903774, 59.4784448903774, 67.7196588845927, 73.31324304356237, 78.32882350610517, 84.63092832521099, 93.71117994327174, 97.94365862355878, 99.90141307919816, 102.04562034013654, 105.21531803021932, 109.69018535739508, 114.51931301463887, 118.13649743743926, 120.24341413731783, 122.96562509468308, 123.50633823005013, 123.39446654687075, 122.38762139825621, 122.48084780090569, 122.76052700885418, 122.83510813097378, 123.59956463269964, 123.54362879110994, 123.43175710793052, 123.54362879110994, 122.07065162924793, 122.07065162924793, 121.95877994606852, 121.84690826288913, 120.6722555895055, 120.00102549042914, 120.29934997890751, 120.15018773466835, 120.16883301519823, 120.72819143109521, 120.6163197479158, 119.51624819665176, 119.49760291612188, 118.82637281704551, 119.25521426923318, 119.73999156301056, 119.49760291612188, 119.49760291612188, 119.44166707453219, 118.30430496220833, 118.34159552326815, 119.1619878665837, 118.09920687637947, 116.30925994550915, 116.21603354285968, 117.31610509412371, 116.92455420299584, 118.30430496220833, 118.99418034181461, 118.9382445002249, 117.40933149677319]",119.25987558936566,1.8809266998432577,None
reward-effort-pgACC-TUS,R88533/RE002,B_8,1,2024-07-30_18h02.50.759,2024-07-30 18:03:58,None,None,4,,,1.6367454528808594,1,32,avoid,shifted,reward,None,80,-40,-36,accept,0.43686189991422,success,0,0,"[1.7153658087506962, 1.7153658087506962, 1.6594299671609996, 1.6594299671609996, 1.6594299671609996, 1.6594299671609996, 1.603494125571303, 1.6221394061012018, 1.6221394061012018, 1.6780752476908984, 1.6594299671609996, 1.6594299671609996, 1.6594299671609996, 1.6780752476908984, 1.603494125571303, 1.6221394061012018, 1.6221394061012018, 1.6780752476908984, 2.1069166998785724, 4.3070598024066395, 4.3070598024066395, 9.807417558726806, 16.743461915849185, 24.64906086052631, 24.64906086052631, 32.25633531672505, 38.446568452651476, 42.119688717041555, 42.119688717041555, 46.986106935345155, 51.125359212982715, 56.383328322414194, 58.881795913420646, 58.881795913420646, 62.8532406662891, 69.22992660751451, 69.22992660751451, 72.7352393471355, 78.70172911670315, 81.47987591565807, 83.06472476069948, 83.06472476069948, 84.91060753315946, 89.68379934881358, 93.26369321055417, 93.26369321055417, 95.72487024050082, 98.29791895362686, 100.40483565350542, 101.72865057112826, 101.72865057112826, 102.94059380557168, 103.53724278252845, 105.06615578598016, 105.06615578598016, 108.06804595129387, 108.21720819553306, 105.47635195763792, 103.18298245246037, 103.18298245246037, 101.87781281536743, 101.31845439947047, 101.0947110331117, 101.0947110331117, 100.08786588449713, 99.71496027389917, 98.87592265005372, 98.87592265005372, 97.10462099971333, 95.35196462990282, 94.1400213954594, 94.08408555386971, 94.08408555386971, 94.66208925029657, 94.47563644499759, 93.41285545479336, 93.41285545479336, 93.17046680790466, 93.43150073532325, 92.14497637876022, 92.14497637876022, 91.38051987703437, 89.94483327623216, 89.55328238510428, 89.77702575146307, 89.77702575146307, 89.72108990987337, 88.88205228602793, 88.37862971172066, 88.37862971172066, 86.64461862244006, 85.74964515700492, 84.79873584998008, 84.4071849588522, 84.4071849588522, 84.01563406772432, 84.2953132756728, 84.98518865527906, 86.0479696454833, 86.0479696454833, 86.62597334191017, 87.29720344098652, 91.21271235226529, 91.21271235226529]",94.22332369718166,1.7291478998959064,None
reward-effort-pgACC-TUS,R88533/RE002,B_8,1,2024-07-30_18h02.50.759,2024-07-30 18:03:58,None,None,4,,,1.6367454528808594,1,33,avoid,shifted,reward,None,100,-80,-63,accept,1.3046402998734266,success,0,0,"[22.206529111109557, 17.974050430822512, 17.974050430822512, 17.52656369810494, 17.15365808750696, 16.836688318498684, 16.81804303796878, 16.799397757438882, 16.799397757438882, 16.81804303796878, 16.85533359902858, 16.81804303796878, 16.892624160088378, 17.302820331746155, 17.731661783933827, 17.731661783933827, 18.141857955591604, 18.626635249368974, 18.645280529898873, 18.235084358241096, 17.694371222874032, 16.799397757438882, 16.799397757438882, 14.356866008022132, 11.76517201436619, 9.826062839256707, 7.905598944677123, 6.5631387465244035, 5.257969109431482, 3.6731202643900778, 3.6731202643900778, 2.964599604253921, 2.4052411883569547, 2.069626138818775, 1.8831733335197862, 1.8831733335197862, 1.7899469308702918, 1.752656369810494, 1.6407846866311009, 1.6221394061012018, 1.6407846866311009, 1.6221394061012018, 1.6407846866311009, 1.6407846866311009, 1.6594299671609996, 1.7153658087506962, 1.8831733335197862, 1.9018186140496849, 1.8831733335197862, 1.9018186140496849, 1.864528052989887, 1.7713016503403929, 1.7899469308702918, 1.7340110892805953, 1.7340110892805953, 1.6594299671609996, 1.6594299671609996, 1.6407846866311009, 1.7899469308702918, 2.8527279210745276, 4.978289901482999, 4.978289901482999, 6.227523696986224, 6.5631387465244035, 7.644565017258538, 9.527738350778323, 11.42955696482801, 16.780752476908987, 20.17419353335058, 20.17419353335058, 28.60186033286487, 39.11779855172783, 45.73687313984193, 50.37954799178676, 58.67669782759175, 58.67669782759175, 65.20254601305636, 71.80297532064056, 75.36422390185125, 79.61534786266819, 83.64272845712635, 89.19902205503621, 89.19902205503621, 93.33827433267375, 95.22144766619354, 97.10462099971333, 98.48437175892585, 99.82683195707857, 103.03382020822116, 106.55777822837204, 106.55777822837204, 110.5478682617704, 112.02084542363242, 115.02273558894613, 115.02273558894613, 115.88041849332149, 119.46031235506207, 120.765481992155, 121.15703288328288, 123.18936846104185, 123.18936846104185, 125.31493044145033, 125.96751525999679, 126.00480582105658, 125.38951156356993, 124.36402113442549, 123.17072318051194, 123.17072318051194, 123.50633823005013, 124.49453809813478, 126.62010007854325, 126.82519816437213, 125.8183530157576, 125.8183530157576, 125.12847763615133, 125.4827379662194, 125.12847763615133, 123.46904766899034, 123.13343261945215, 121.56722905494064, 121.56722905494064, 121.0451612001035, 121.69774601864994, 121.80961770182934, 119.81457268513016, 119.25521426923318, 118.15514271796917, 115.78719209067201, 115.78719209067201, 114.76170166152757, 114.76170166152757, 113.75485651291302, 112.3378151926407, 110.17496265117244, 109.61560423527547, 110.23089849276214, 110.23089849276214, 107.21036304691852, 104.39492568690379, 103.48130694093874, 103.35078997722944, 102.94059380557168, 102.94059380557168]",117.41611159878406,2.669468400068581,None
reward-effort-pgACC-TUS,R88533/RE002,B_8,1,2024-07-30_18h02.50.759,2024-07-30 18:03:58,None,None,4,,,1.6367454528808594,1,34,avoid,shifted,reward,None,100,-60,-63,accept,0.5371850000228733,failure,-63,-63,"[1.5475582839816064, 1.454331881332112, 1.4916224423919098, 1.4916224423919098, 1.4916224423919098, 1.4356866008022133, 1.4356866008022133, 1.4356866008022133, 1.4729771618620109, 1.4729771618620109, 1.4729771618620109, 1.4729771618620109, 1.5289130034517076, 1.5289130034517076, 1.5289130034517076, 1.5662035645115053, 1.584848845041404, 1.584848845041404, 1.584848845041404, 1.5289130034517076, 1.6407846866311009, 1.6780752476908984, 1.7713016503403929, 1.7713016503403929, 1.8458827724599884, 1.9950450166991793, 2.1628525414682693, 2.1628525414682693, 2.330660066237359, 2.759501518425033, 3.6544749838601795, 5.5003577563201675, 5.5003577563201675, 7.402176370369852, 9.136187459650449, 13.461892542586988, 13.461892542586988, 18.34695604142049, 29.40360739565052, 37.327851620857544, 49.78289901482999, 49.78289901482999, 58.564826144412365, 64.53131591398001, 72.64201294448601, 72.64201294448601, 76.89313690530295, 81.18155142717968, 81.18155142717968, 83.99698878719443, 87.52094680734531, 87.7446901737041, 91.15677651067558, 92.5738178309479, 95.03499486089456, 95.03499486089456, 97.5521077324309, 98.37250007574644, 100.01328476237757, 100.01328476237757, 101.13200159417148, 102.19478258437573, 102.19478258437573, 103.18298245246037, 105.92383869035548, 108.8697930140795, 111.06993611660758, 111.06993611660758, 112.02084542363242, 112.15136238734172, 111.14451723872718, 112.4496868758201, 112.4496868758201, 115.37699591901422, 122.48084780090569, 121.64181017706024, 121.82826298235922, 121.67910073812006, 121.67910073812006, 121.32484040805195, 124.40131169548528, 125.27763988039054, 123.35717598581095, 123.35717598581095, 121.79097242129944, 121.41806681070146, 122.87239869203357, 122.87239869203357, 123.22665902210166, 120.82141783374469, 120.18747829572814, 118.36024080379804, 118.36024080379804, 116.36519578709887, 113.8853734766223, 107.99346482917427, 107.99346482917427, 93.54337241850264, 78.66443855564334, 67.49591551823391, 67.49591551823391, 60.44799947793214, 62.87188594681899, 70.23677175612906, 70.23677175612906, 73.92853730104903, 84.01563406772432, 92.87214231942629, 92.87214231942629, 92.7043347946572, 87.8752071374134, 82.44943050321282, 80.79000053605182, 81.21884198823949, 81.21884198823949, 83.62408317659644, 89.3108937382156, 95.37060991043273, 95.37060991043273, 99.54715274913009, 100.44212621456523, 102.95923908610159, 108.70198548931043, 108.70198548931043, 113.45653202443464, 117.05507116670513, 123.52498351058003, 123.52498351058003, 124.58776450078426, 124.81150786714306, 123.86059856011822, 125.18441347774103, 125.18441347774103, 125.27763988039054, 123.59956463269964, 122.3130402761366, 122.46220252037578, 122.46220252037578, 123.69279103534912, 123.04020621680264, 122.98427037521296, 123.65550047428933, 123.65550047428933, 122.74188172832427, 122.70459116726448, 122.92833453362326, 122.92833453362326, 121.67910073812006, 119.94508964883946, 119.106052024994, 119.106052024994, 117.4279767773031, 116.77539195875664, 115.56344872431322, 114.40744133145948, 114.40744133145948, 114.05318100139141, 114.59389413675846, 113.51246786602434, 113.04633585277686, 113.04633585277686, 111.61064925197466, 109.42915142997649, 108.83250245301971, 108.83250245301971, 107.5646233769866, 104.99157466386055, 104.0966011984254, 104.02202007630581, 103.96608423471612, 103.96608423471612, 106.31538958148337, 104.46950680902339, 104.46950680902339, 103.44401637987895, 103.44401637987895, 103.16433717193046, 101.69136001006845, 101.69136001006845, 99.93870364025796, 98.54030760051555, 99.92005835972806, 99.92005835972806, 101.00148463046219, 100.31160925085594, 101.24387327735087, 101.24387327735087, 103.70505030729753, 109.5037325520961, 110.26818905382194, 109.96986456534354, 111.48013228826537, 111.48013228826537, 113.51246786602434, 115.41428648007401, 114.46337717304917, 114.46337717304917, 115.50751288272352, 116.30925994550915, 114.87357334470695, 113.47517730496455, 113.47517730496455, 114.64982997834817, 115.97364489597099, 115.97364489597099, 115.63802984643281, 115.43293176060392, 115.41428648007401, 115.41428648007401, 117.07371644723503, 115.26512423583483, 113.54975842708413, 113.54975842708413, 111.79710205727365, 108.72063076984033, 102.84736740292217, 102.84736740292217, 96.93681347494424, 91.26864819385499, 90.18722192312084, 90.18722192312084, 93.35691961320366, 94.90447789718526, 98.40979063680625, 100.01328476237757, 100.01328476237757, 101.20658271629108, 100.01328476237757, 97.27242852448242, 92.94672344154587, 92.94672344154587, 81.47987591565807, 70.94529241626522, 55.76803406492753, 40.739937957829035, 40.739937957829035, 34.008991686535545, 27.52043406213074, 24.574479738406716, 24.574479738406716, 22.355691355348746, 21.236974523554817, 19.8758690448722, 18.402891883010184, 18.402891883010184, 16.762107196379088, 14.244994324842738, 11.317685281648615, 9.136187459650449, 7.7564367004379315, 7.7564367004379315, 6.749591551823392, 5.94784448903774, 5.071516304132493, 5.071516304132493, 4.344350363466437, 3.5798938617405835, 3.1510524095529098, 2.796792079484831, 2.796792079484831, 2.610339274185842, 2.4238864688868533, 2.2933695051775613, 2.2933695051775613, 2.2187883830579658, 2.1628525414682693, 2.1069166998785724, 1.9950450166991793, 1.9950450166991793, 1.9577544556393816, 1.9577544556393816, 1.9577544556393816, 1.9577544556393816, 1.9018186140496849, 1.9018186140496849, 1.8831733335197862, 1.9018186140496849, 1.8831733335197862, 1.8831733335197862, 1.9391091751094829, 1.9391091751094829, 1.920463894579584, 1.920463894579584, 1.8458827724599884, 1.8272374919300898, 1.8831733335197862, 1.864528052989887, 1.864528052989887, 1.8085922114001907, 1.7713016503403929, 1.8272374919300898, 1.8272374919300898, 1.7899469308702918, 1.752656369810494, 1.6407846866311009, 1.6221394061012018, 1.6221394061012018, 1.6407846866311009, 1.5475582839816064, 1.4170413202723144, 1.4170413202723144]",0,5.010263800155371,None
reward-effort-pgACC-TUS,R88533/RE002,B_8,1,2024-07-30_18h02.50.759,2024-07-30 18:03:58,None,None,4,,,1.6367454528808594,1,35,avoid,shifted,reward,None,65,-20,-19,accept,2.4984108000062406,success,0,-63,"[5.313904951021179, 5.276614389961381, 5.276614389961381, 5.313904951021179, 5.332550231551077, 5.332550231551077, 5.29525967049128, 5.164742706781988, 5.052871023602594, 5.052871023602594, 5.1088068651922915, 5.1088068651922915, 5.127452145722191, 5.127452145722191, 5.146097426252089, 5.1088068651922915, 5.1088068651922915, 5.1088068651922915, 5.164742706781988, 5.052871023602594, 5.090161584662392, 5.071516304132493, 5.071516304132493, 5.1088068651922915, 4.996935182012898, 5.015580462542797, 5.071516304132493, 5.071516304132493, 5.052871023602594, 5.1088068651922915, 5.1088068651922915, 5.1088068651922915, 5.1088068651922915, 5.164742706781988, 5.202033267841785, 5.202033267841785, 5.276614389961381, 5.966489769567639, 6.5631387465244035, 7.383531089839954, 7.383531089839954, 8.147987591565807, 9.975225083495896, 13.89073399477466, 13.89073399477466, 18.32831076089059, 22.784532807536422, 30.298580861085668, 39.11779855172783, 39.11779855172783, 46.87423525216576, 57.52069043473802, 57.52069043473802, 63.654987729074755, 70.90800185520541, 75.49474086556054, 81.89007208731584, 81.89007208731584, 84.03427934825422, 83.60543789606655, 83.60543789606655, 83.30711340758816, 81.53581175724777, 78.62714799458355, 78.62714799458355, 76.0354540009276, 75.02860885231306, 72.8657563108448, 72.8657563108448, 71.0012282578549, 71.74703947905087, 71.65381307640136, 71.65381307640136, 70.36728871983836, 70.32999815877855, 70.81477545255592, 72.13859037017873, 72.13859037017873, 72.30639789494782, 72.34368845600763, 73.08949967720359, 73.08949967720359, 73.77937505680984, 74.2827976311171, 76.81855578318336, 76.81855578318336, 79.54076674054859, 81.33071367141889, 83.60543789606655, 82.8409813943407, 82.8409813943407, 81.51716647671788, 80.77135525552191, 80.62219301128273, 80.62219301128273, 80.64083829181263, 80.67812885287242, 80.73406469446212, 80.73406469446212, 80.73406469446212, 80.00689875379607, 79.03734416624133, 79.03734416624133, 77.84404621232778, 76.94907274689264, 76.57616713629467, 76.55752185576478, 76.55752185576478, 76.50158601417507, 75.88629175668841, 75.34557862132134, 75.34557862132134, 74.67434852224498, 73.55563169045105, 73.22001664091287, 73.22001664091287, 73.25730720197267, 73.96582786210882, 74.95402773019347, 74.95402773019347, 77.43385004067001, 78.51527631140415, 78.01185373709689, 77.7694650902082, 77.7694650902082, 77.99320845656699, 78.27288766451547, 78.44069518928455, 78.44069518928455, 80.73406469446212, 83.12066060228918, 84.10886047037381, 84.10886047037381, 82.39349466162312, 81.12561558559, 81.1069703050601]",77.73156320847528,2.2517045000568032,None
reward-effort-pgACC-TUS,R88533/RE002,B_8,1,2024-07-30_18h02.50.759,2024-07-30 18:03:58,None,None,4,,,1.6367454528808594,1,36,avoid,shifted,reward,None,95,-60,-58,accept,0.6198499999009073,success,0,-63,"[3.6544749838601795, 3.6171844228003813, 3.6544749838601795, 3.6544749838601795, 3.6171844228003813, 3.598539142270482, 3.598539142270482, 3.6171844228003813, 3.6171844228003813, 3.598539142270482, 3.598539142270482, 3.710410825449876, 3.729056105979774, 3.8036372280993698, 4.362995643996336, 4.362995643996336, 4.810482376713909, 5.202033267841785, 5.351195512080976, 5.351195512080976, 5.425776634200572, 5.519003036850066, 5.873263366918144, 5.873263366918144, 6.6936557102336955, 8.632764885343178, 12.604209638211639, 19.372446470564928, 19.372446470564928, 30.429097824794958, 42.69769241346842, 52.11355908106735, 52.11355908106735, 58.75127894971135, 62.29388225039213, 70.29270759771875, 76.40835961152558, 76.40835961152558, 80.9950986218807, 83.86647182348513, 91.43645571862407, 96.52661730328647, 96.52661730328647, 98.72676040581453, 99.78954139601876, 99.93870364025796, 99.93870364025796, 100.92690350834259, 103.14569189140057, 107.09849136373913, 107.09849136373913, 109.03760053884861, 113.56840370761402, 122.03336106818811, 122.03336106818811, 122.70459116726448, 123.78601743799862, 123.33853070528104, 124.14027776806668, 124.14027776806668, 125.8556435768174, 127.30997545814951, 129.62199024385697, 130.6288353924715, 130.6288353924715, 128.33546588729394, 126.82519816437213, 126.30313030953498, 125.4827379662194, 125.4827379662194, 122.92833453362326, 121.08245176116328, 120.59767446738591, 120.59767446738591, 118.9568897807548, 116.70081083663703, 115.65667512696271, 115.50751288272352, 115.17189783318533, 115.17189783318533, 112.85988304747787, 112.63613968111909, 112.43104159529021, 112.43104159529021, 110.92077387236839, 109.2986344662672, 111.23774364137668, 114.53795829516878, 114.53795829516878, 114.61253941728837, 114.1650526845708, 112.76665664482839, 112.76665664482839, 112.02084542363242, 111.72252093515405, 110.15631737064253, 110.15631737064253, 105.43906139657813, 103.89150311259652, 103.59317862411814, 103.35078997722944, 103.35078997722944, 102.81007684186238, 102.38123538967471]",114.66175073147384,1.7320224998984486,None
reward-effort-pgACC-TUS,R88533/RE002,B_8,1,2024-07-30_18h02.50.759,2024-07-30 18:03:58,None,None,4,,,1.6367454528808594,1,37,avoid,shifted,reward,None,60,-20,-19,accept,0.4358051000162959,success,0,-63,"[1.8458827724599884, 1.8458827724599884, 1.8831733335197862, 1.8831733335197862, 1.864528052989887, 1.9391091751094829, 1.9391091751094829, 1.9391091751094829, 1.9950450166991793, 2.610339274185842, 3.4493768980312915, 3.4493768980312915, 5.127452145722191, 6.432621782815111, 7.663210297788437, 7.663210297788437, 7.961534786266819, 8.856508251701964, 10.217613730384583, 10.217613730384583, 12.622854918741536, 16.72481663531929, 18.775797493608167, 18.775797493608167, 26.12203802238832, 34.6988670661418, 41.70949254538378, 41.70949254538378, 52.971241985442695, 59.6835429762063, 65.85513083160282, 70.36728871983836, 70.36728871983836, 71.82162060117045, 73.01491855508398, 74.87944660807388, 74.87944660807388, 76.50158601417507, 77.35926891855043, 76.63210297788436, 76.63210297788436, 76.59481241682457, 77.11688027166174, 77.07958971060194, 76.14732568410699, 76.14732568410699, 75.02860885231306, 74.78622020542439, 75.88629175668841, 75.88629175668841, 75.75577479297912, 75.04725413284297, 74.73028436383468, 74.5065409974759, 74.5065409974759, 73.98447314263873, 72.58607710289631, 71.57923195428178, 71.57923195428178, 72.11994508964884, 72.7538846276654, 73.03356383561388, 73.31324304356237, 73.31324304356237, 73.36917888515207, 73.36917888515207, 74.04040898422842, 74.04040898422842, 74.5624768390656, 74.4133145948264, 75.75577479297912, 75.75577479297912, 77.13552555219164, 77.67623868755871, 76.76261994159366, 76.76261994159366, 76.72532938053386, 76.65074825841427, 75.97951815933791, 75.73712951244921, 75.73712951244921, 74.91673716913367, 74.20821650899751, 73.74208449575003, 73.74208449575003, 73.03356383561388, 72.28775261441794, 71.18768106315389, 71.18768106315389, 71.0758093799745, 71.0758093799745, 71.0198735383848, 70.49780568354764]",74.3288093717796,1.538834999781102,None
reward-effort-pgACC-TUS,R88533/RE002,B_8,1,2024-07-30_18h02.50.759,2024-07-30 18:03:58,None,None,4,,,1.6367454528808594,1,38,avoid,shifted,reward,None,50,-80,-84,accept,1.4123859000392258,success,0,-63,"[20.86406891295684, 19.54025399533402, 18.850378615727763, 18.607989968839075, 18.36560132195039, 18.36560132195039, 18.085922114001907, 17.88082402817302, 17.974050430822512, 17.918114589232818, 17.88082402817302, 17.84353346711322, 17.84353346711322, 17.787597625523524, 17.731661783933827, 17.638435381284335, 17.638435381284335, 17.65708066181423, 18.291020199830793, 21.106457559845524, 30.429097824794958, 30.429097824794958, 38.931345746428846, 54.91035116055218, 65.48222522100484, 75.55067670715023, 75.55067670715023, 80.13741571750536, 80.79000053605182, 81.79684568466635, 82.63588330851181, 82.63588330851181, 82.15110601473444, 80.9764533413508, 78.81360079988254, 76.40835961152558, 74.87944660807388, 74.87944660807388, 73.31324304356237, 72.26910733388803, 70.92664713573531, 70.94529241626522, 71.1317452215642, 71.1503905020941, 71.1503905020941, 72.23181677282822, 72.6793035055458, 73.03356383561388, 73.74208449575003, 74.04040898422842, 73.77937505680984, 73.77937505680984, 73.20137136038298, 72.77252990819531, 72.43691485865712, 71.67245835693127, 71.0758093799745, 70.34864343930845, 69.95709254818057, 69.4909605349331, 69.4909605349331, 69.13670020486502, 68.07391921466078, 66.86197598021735, 66.75010429703796, 66.67552317491837, 65.70596858736363, 64.73641399980889, 64.60589703609959, 64.60589703609959, 64.27028198656141, 64.15841030338201, 64.32621782815112, 64.6245423166295, 64.28892726709131, 64.28892726709131, 65.76190442895332, 65.76190442895332, 65.27712713517595]",71.40396631730071,1.4764968000818044,None
reward-effort-pgACC-TUS,R88533/RE002,B_8,1,2024-07-30_18h02.50.759,2024-07-30 18:03:58,None,None,4,,,1.6367454528808594,1,39,avoid,shifted,reward,None,90,-100,-93,accept,0.371874799951911,success,0,-63,"[1.6407846866311009, 1.603494125571303, 1.584848845041404, 1.6407846866311009, 1.6407846866311009, 1.6594299671609996, 1.6221394061012018, 1.6780752476908984, 1.6780752476908984, 1.752656369810494, 1.752656369810494, 1.864528052989887, 1.864528052989887, 1.9018186140496849, 1.8458827724599884, 1.9018186140496849, 1.9763997361692807, 2.0323355777589773, 2.181497821998168, 2.3865959078270556, 3.6544749838601795, 7.476757492489448, 12.23130402761366, 18.104567394531806, 27.63230574531013, 37.25327049873795, 46.44539379997809, 56.2901019197647, 59.96322218415477, 65.9856477953121, 71.52329611269208, 73.36917888515207, 76.24055208675648, 81.38664951300858, 81.90871736784575, 79.4288950573692, 77.32197835749062, 76.83720106371325, 78.62714799458355, 79.16786112995061, 81.77820040413646, 84.3326038367326, 85.39538482693683, 86.57003750032047, 90.9703237053766, 95.16551182460384, 99.1556018580022, 99.80818667654866, 102.06426562066643, 104.32034456478418, 103.31349941616965, 101.95239393748703, 101.67271472953855, 103.64911446570784, 106.42726126466277, 106.14758205671428, 103.29485413563975, 101.37439024106017, 100.23702812873634, 99.45392634648059, 100.03193004290745, 100.18109228714664, 99.75225083495897, 99.73360555442908, 100.59128845880443, 100.03193004290745, 100.03193004290745, 99.2115376995919, 99.93870364025796, 100.42348093403533, 100.23702812873634, 99.62173387124967, 99.62173387124967, 98.65217928369493, 98.57759816157534, 94.49428172552749, 93.84169690698103, 93.59930826009234, 93.35691961320366, 93.24504793002426, 92.7229800751871, 92.7043347946572, 92.7229800751871, 91.77207076816225, 91.45510099915397, 90.9330331443168, 91.54832740180346, 93.61795354062224, 93.72982522380163, 94.56886284764708, 95.66893439891112, 100.62857901986422, 109.05624581937852, 113.15820753595627, 115.99229017650087, 120.93328951692408, 122.1452327513675, 121.71639129917983, 121.77232714076953, 118.91959921969502, 115.07867143053585, 113.00904529171707, 112.00220014310254, 110.64109466441991, 109.96986456534354, 109.95121928481366, 108.9443741361991, 108.92572885566922, 108.49688740348154, 107.490042254867, 106.0357103735349, 104.02202007630581, 102.325299548085, 101.18793743576117, 100.12515644555695, 99.90141307919816, 99.3234093827713, 97.66397941561029, 97.49617189084121, 98.16740198991756, 96.86223235282463, 94.99770429983475, 94.06544027333982, 94.99770429983475, 94.62479868923678, 93.45014601585315, 93.05859512472527, 93.45014601585315, 93.56201769903254, 93.31962905214385, 92.74162535571699, 92.35007446458911, 93.13317624684487, 92.6670442335974, 91.71613492657255, 93.97221387069031, 98.14875670938767, 98.65217928369493, 98.67082456422483, 98.22333783150727, 98.52166231998565, 98.13011142885777, 96.67577954752565, 96.24693809533798, 98.01823974567837, 99.52850746860018, 99.0810207358826, 97.23513796342263, 94.43834588393779, 93.41285545479336, 91.95852357346124, 91.06355010802609, 92.46194614776851, 93.35691961320366, 95.46383631308223, 97.86907750143918, 98.26062839256706, 96.69442482805556, 94.75531565294607, 94.68073453082647, 96.0045494484493, 98.07417558726807, 101.91510337642724, 107.78836674334538, 112.67343024217888, 116.17874298179987, 116.36519578709887, 111.44284172720556, 112.6174944005892, 112.74801136429848, 112.95310945012737, 113.47517730496455, 112.80394720588818, 112.67343024217888, 110.9767097139581, 109.31727974679708, 107.95617426811448, 106.27809902042358, 106.27809902042358, 105.8865481292957, 104.82376713909147, 104.84241241962135, 103.36943525775935, 102.00832977907672, 102.28800898702521, 102.23207314543552, 101.13200159417148, 100.59128845880443, 100.7404507030436, 100.12515644555695, 99.77089611548887, 99.71496027389917, 100.21838284820643, 101.28116383841068, 100.40483565350542, 100.06922060396725, 99.97599420131775, 99.65902443230948, 99.69631499336927, 98.89456793058362, 98.20469255097736, 98.83863208899393]",103.55855167456261,4.368734100135043,None
reward-effort-pgACC-TUS,R88533/RE002,B_8,1,2024-07-30_18h02.50.759,2024-07-30 18:03:58,None,None,4,,,1.6367454528808594,1,40,avoid,shifted,reward,0.5,75,-100,-98,accept,0.39540289994329214,success,0,-63,"[1.6967205282207976, 1.7153658087506962, 1.6967205282207976, 1.6967205282207976, 1.6221394061012018, 1.6967205282207976, 1.752656369810494, 1.752656369810494, 1.920463894579584, 2.1255619804084716, 2.498467591006449, 2.498467591006449, 4.344350363466437, 7.0852066013615715, 10.832907987871245, 15.86713373094394, 20.04367656964129, 29.32902627353093, 39.285606076496926, 57.632562117917416, 64.6431875971594, 70.60967736672703, 77.54572172384941, 78.96276304412173, 79.85773650955687, 82.91556251646028, 86.21577717025238, 88.04301466218247, 91.36187459650448, 91.92123301240144, 91.02625954696629, 89.32953901874549, 88.58372779754954, 88.90069756655782, 90.56012753371883, 91.26864819385499, 90.31773888683013, 86.96158839144834, 84.87331697209967, 83.13930588281907, 83.56814733500674, 84.59363776415118, 87.65146377105461, 92.23820278140973, 95.37060991043273, 98.55895288104544, 97.32836436607212, 98.48437175892585, 99.52850746860018, 100.01328476237757, 101.54219776582927, 101.69136001006845, 101.69136001006845, 101.74729585165814, 100.9641940694024, 98.98779433323311, 96.0045494484493, 95.14686654407394, 94.43834588393779, 93.15182152737476, 92.9094328804861, 91.49239156021378, 89.3481842992754, 87.81927129582368, 88.52779195595984, 88.43456555331035, 88.60237307807944, 89.236312616096, 89.3481842992754, 89.68379934881358, 89.66515406828368]",91.76691356290928,1.5601581998635083,None
