expName,curec_ID,trial_schedule,session_nr,date,start_time,end_time,duration,participant,age,gender,max_strength,block_number,trial_count,block_action_type,block_global_effort_state,block_attention_focus,trial_rating,trial_effort,trial_outcome_level,trial_actual_outcome,response,response_time,result,points,cumulative_points,effort_trace,effort_expended,effort_response_time,final_bonus_payment
reward-effort-pgACC-TUS,R88533/RE002,A_7,1,2024-08-01_11h37.31.106,2024-08-01 11:38:50,None,None,5,,,3.3819305419921877,1,1,avoid,normal,reward,None,65,-80,-87,accept,1.6671320000023115,success,0,0,"[0.4511857612992706, 0.43313833084729975, 0.42411461562131436, 0.40606718516934354, 0.42411461562131436, 0.42411461562131436, 0.44216204607328513, 0.44216204607328513, 0.43313833084729975, 0.43313833084729975, 0.43313833084729975, 0.44216204607328513, 0.44216204607328513, 0.42411461562131436, 0.42411461562131436, 0.4150909003953289, 0.3880197547173727, 0.3880197547173727, 0.3880197547173727, 0.3880197547173727, 0.42411461562131436, 0.9565138139544537, 3.131229183416938, 7.88672710751125, 15.150817864429506, 29.08343417335098, 40.92254854984384, 53.49258385964152, 64.37518442217993, 64.37518442217993, 73.52523166132914, 79.81476117384096, 81.97142911285148, 86.20355155383864, 87.62929855954434, 88.73921553234054, 89.8220613594588, 88.42338549943105, 85.76138950776536, 85.76138950776536, 81.69169394084594, 79.96816433268272, 77.5046900759887, 73.88618027036856, 71.89193920542579, 69.19384835285614, 66.5589235068684, 66.5589235068684, 64.10447296540036, 62.94943741647423, 62.46215679427102, 61.65904613915831, 60.78374576223773, 60.78374576223773, 59.86332680918722, 60.01672996802897, 60.05282482893291, 60.32353628571248, 61.388334682378755, 61.388334682378755, 62.1643741918135, 62.11925561568358, 63.301362310287665, 65.99042944763131, 67.68688791011658, 67.68688791011658, 69.78038984254519, 70.71885622604768, 70.70983251082168, 72.23484038401322, 73.1733067675157, 73.1733067675157, 72.97478503254402, 72.91161902596212, 72.95673760209206, 72.8665004498322, 72.97478503254402, 72.97478503254402, 72.19874552310928, 69.49163095531365, 69.49163095531365, 66.18895118260299, 64.05033067404446, 62.913342555570296, 62.29972992020328, 61.983899887293795, 61.64099870870635, 61.54173784122051, 61.794401867548096, 62.2907062049773, 62.2907062049773, 62.53434651607891, 63.91497494565467, 65.74678913652971, 66.81158753319599, 67.57860332740475, 69.02239776356241, 69.78038984254519, 69.74429498164125, 70.9444491066973, 70.9444491066973, 72.22581666878723, 72.57774156260066, 71.65732260955015, 70.69178508036971, 71.51294316593439, 71.51294316593439, 71.63927517909818, 70.93542539147131, 70.88128310011541, 71.4407534441265, 70.83616452398547, 70.1413384515846, 70.13231473635862, 70.16840959726255, 71.133947126443, 72.58676527782664, 72.58676527782664, 73.12818819138577, 72.71309729099045, 72.2528878144652, 72.28898267536913, 72.87552416505818, 73.01087989344796, 72.88454788028417, 73.76887197243074, 73.94032256172447, 72.71309729099045, 70.9444491066973, 70.9444491066973, 71.03468625895715, 70.90835424579338, 70.16840959726255, 69.72624755118927, 69.59089182279949, 69.53674953144359, 69.2209194985341, 69.0855637701443, 69.0855637701443, 68.76973373723483, 68.76071002200884, 69.38334637260184]",70.0517697226748,2.6808617999922717,None
reward-effort-pgACC-TUS,R88533/RE002,A_7,1,2024-08-01_11h37.31.106,2024-08-01 11:38:50,None,None,5,,,3.3819305419921877,1,2,avoid,normal,reward,None,85,-60,-59,accept,1.204684600001201,success,0,0,"[0.460209476525256, 0.4511857612992706, 0.4963043374291976, 0.4963043374291976, 0.4963043374291976, 0.4872806222032122, 0.47825690697722684, 0.4872806222032122, 0.4872806222032122, 0.460209476525256, 0.460209476525256, 0.460209476525256, 0.4963043374291976, 0.6948260724008768, 1.8137667604230678, 1.8137667604230678, 2.562735124179857, 3.2304900509027776, 5.233754831071539, 5.233754831071539, 7.823561100929352, 8.545458319008185, 10.783339695052566, 10.783339695052566, 14.446968076802644, 20.89892446338221, 31.51081356914106, 31.51081356914106, 43.33188051518195, 49.738718325631595, 57.24644939365145, 57.24644939365145, 61.61392756302839, 67.1093701356535, 70.19548074294052, 73.29061506545351, 73.29061506545351, 76.83693514926578, 79.37259912776769, 81.28562675567659, 81.28562675567659, 82.95501407248389, 83.66788757533674, 84.53416423703133, 85.52677291188974, 85.52677291188974, 86.2847649908725, 87.5300376920585, 88.85652383027835, 88.85652383027835, 90.43567399482579, 92.44796249022055, 94.36099011812945, 95.49797823660361, 95.49797823660361, 96.90567781185734, 98.51189912208274, 100.0820255714042, 100.0820255714042, 100.74978049812712, 101.8145788947934, 101.51679629233587, 101.51679629233587, 100.49711647179953, 100.44297418044361, 100.24445244547194, 99.9015512668845, 99.9015512668845, 99.26086748583953, 98.81870543976625, 99.01722717473793, 99.01722717473793, 98.972108598608, 98.69237342660246, 97.726835897422, 97.3658872883826, 97.3658872883826, 97.44710072541646, 97.41100586451252, 97.42905329496449, 97.42905329496449, 97.16736555341092, 96.90567781185734, 96.94177267276129, 96.35523118307223, 96.35523118307223, 96.00330628925879, 94.54146442264916, 94.3248952572255, 94.3248952572255, 94.22563438973967, 93.60299803914668, 92.44796249022055, 92.44796249022055, 91.33804551742433, 89.76791906810287, 89.35282816770754, 89.37989931338551, 89.37989931338551, 88.98285584344214, 89.19040129363981]",94.2855984328543,1.6753217000077711,None
reward-effort-pgACC-TUS,R88533/RE002,A_7,1,2024-08-01_11h37.31.106,2024-08-01 11:38:50,None,None,5,,,3.3819305419921877,1,3,avoid,normal,reward,None,70,-20,-17,accept,1.4846653999993578,success,0,0,"[0.4150909003953289, 0.4150909003953289, 0.4150909003953289, 0.4150909003953289, 0.44216204607328513, 0.44216204607328513, 0.44216204607328513, 0.42411461562131436, 0.4150909003953289, 0.43313833084729975, 0.43313833084729975, 0.4511857612992706, 0.46923319175124145, 0.76701579420876, 0.76701579420876, 1.7957193299710972, 2.6619959916656963, 3.356822064066573, 3.356822064066573, 4.800616500224239, 5.730059168500737, 6.6143832606473065, 6.6143832606473065, 8.148414849064826, 11.117217158414029, 18.083525312874766, 18.083525312874766, 24.788145725781927, 32.0432127674742, 38.68466717379946, 38.68466717379946, 43.512354819701656, 47.42864722777932, 49.549220305885896, 49.549220305885896, 53.97084076661874, 60.161109411644745, 63.16600658189788, 63.16600658189788, 66.25211718918489, 69.32018036601994, 69.87965071003103, 69.87965071003103, 70.61057164333585, 71.3866111527706, 72.64993128440855, 72.64993128440855, 73.72375339630082, 76.32258338138462, 79.17407739279601, 79.17407739279601, 80.74420384211747, 80.82541727915134, 81.06905759025294, 82.38652001324681, 82.38652001324681, 84.82292312426287, 86.82618790443163, 87.29542109618288, 87.29542109618288, 86.19452783861266, 83.83933816463046, 83.73105358191863, 83.73105358191863, 83.64984014488476, 82.80161091364214, 82.72039747660827, 82.72039747660827, 82.92794292680593, 83.01818007906579, 82.72039747660827, 82.72039747660827, 82.1428797021452, 82.30530657621294, 83.3249863967493, 83.3249863967493, 83.65886386011076, 82.63016032434841, 83.505460701269, 83.505460701269, 85.7974843686693, 86.99763849372536, 87.7827017183861, 87.7827017183861, 88.05341317516564, 87.5300376920585, 87.4668716854766, 87.2863973809569, 87.2863973809569, 87.41272939412067, 87.5210139768325, 87.03373335462929, 87.03373335462929, 85.2380140246582, 83.54155556217295, 82.15190341737119, 82.15190341737119, 81.98947654330345, 81.56536192768213, 81.31269790135455, 81.12319988160885, 81.12319988160885]",82.23835643098792,1.6929945000010775,None
reward-effort-pgACC-TUS,R88533/RE002,A_7,1,2024-08-01_11h37.31.106,2024-08-01 11:38:50,None,None,5,,,3.3819305419921877,1,4,avoid,normal,reward,None,95,-60,-62,accept,0.9853814999951283,success,0,0,"[0.3699723242654019, 0.35192489381343106, 0.3880197547173727, 0.3880197547173727, 0.3789960394913873, 0.36094860903941645, 0.36094860903941645, 0.36094860903941645, 0.3789960394913873, 0.39704346994335815, 0.39704346994335815, 0.3699723242654019, 0.36094860903941645, 0.3429011785874457, 0.36094860903941645, 0.36094860903941645, 0.36094860903941645, 0.33387746336146024, 0.35192489381343106, 0.35192489381343106, 0.3429011785874457, 0.3880197547173727, 0.39704346994335815, 0.39704346994335815, 0.4511857612992706, 0.5865414896890517, 0.7309209333048183, 0.7309209333048183, 0.9565138139544537, 1.1640592641521181, 1.687434747259272, 1.687434747259272, 3.086110607287011, 4.638189626156501, 7.868679677059279, 13.995782315503375, 13.995782315503375, 20.411643841179, 27.76597175035711, 34.84958820275566, 40.74207424532413, 40.74207424532413, 48.89048909438896, 57.219378247973495, 63.184054012349854, 63.184054012349854, 69.94281671661294, 74.69831464070724, 80.55470582237177, 83.02720379429176, 86.81716418920564, 86.81716418920564, 88.0263420294877, 89.40697045906346, 91.82532613962755, 91.82532613962755, 93.9007806416042, 94.81217587942872, 95.04679247530434, 95.876974276095, 95.876974276095, 96.99591496411719, 97.14931812295895, 97.62757502993618, 97.87121534103778, 97.87121534103778, 98.26825881098114, 99.63083981010493, 100.65954334586726, 100.65954334586726, 100.94830223309881, 100.98439709400276, 101.11975282239251, 101.0836579614886, 101.0836579614886, 101.16487139852246, 101.57996229891776, 101.69727059685559, 101.69727059685559, 101.67019945117764, 101.54386743801385, 101.55289115323983, 101.3272982725902, 101.3272982725902, 100.38883188908771, 99.45036550558522, 99.17965404880566, 98.51189912208274, 98.51189912208274, 98.00657106942757, 98.03364221510552, 97.47417187109441, 97.15834183818492, 97.15834183818492, 97.07712840115106, 97.06810468592508, 97.14931812295895, 97.14931812295895, 96.86958295095339, 96.58082406372186, 96.61691892462581, 97.26662642089676, 97.59148016903222, 97.59148016903222, 98.0426659303315, 97.88023905626376, 97.88023905626376, 97.58245645380624, 98.0426659303315, 98.58408884389063, 98.52994655253471, 98.52994655253471, 98.46678054595282, 98.67432599615049, 98.85480030067019, 98.85480030067019]",98.37799883163264,1.9287123999965843,None
reward-effort-pgACC-TUS,R88533/RE002,A_7,1,2024-08-01_11h37.31.106,2024-08-01 11:38:50,None,None,5,,,3.3819305419921877,1,5,avoid,normal,reward,0.496,100,-80,-88,accept,1.4598203000059584,success,0,0,"[0.46923319175124145, 0.44216204607328513, 0.43313833084729975, 0.43313833084729975, 0.43313833084729975, 0.42411461562131436, 0.42411461562131436, 0.42411461562131436, 0.44216204607328513, 0.43313833084729975, 0.4511857612992706, 0.460209476525256, 0.47825690697722684, 0.47825690697722684, 0.6226363505929934, 0.9565138139544537, 2.1566679390105135, 3.3297509183886165, 6.848999856522927, 10.575794244854903, 20.149956099625424, 20.149956099625424, 29.850449967559744, 41.00376198687771, 48.060307293598306, 57.742753731080654, 62.317777350655255, 68.42683255864738, 73.03795103912593, 75.96163477234519, 78.74996277717469, 78.74996277717469, 80.56372953759777, 81.90826310626959, 83.9385990321163, 86.62766616945994, 87.84586772496799, 88.32412463194521, 89.10016414137996, 90.5620060079896, 91.95165815279135, 93.0886462712655, 94.13539723747981, 94.45122727038931, 95.23629049505004, 96.32816003739427, 96.32816003739427, 97.05005725547309, 97.3027212818007, 97.53733787767631, 98.07876079123544, 98.94503745293004, 100.18128643889004, 100.6956382067712, 100.6956382067712, 100.65051963064128, 101.16487139852246, 102.13040892770289, 102.50940496719427, 102.53647611287224, 102.89742472191166, 103.70955909225034, 104.01636540993384, 104.42243259510317, 104.77435748891662, 104.82849978027254, 104.88264207162845, 104.63900176052682, 104.63900176052682, 105.18042467408597, 105.46015984609151, 105.51430213744742, 105.59551557448128, 105.66770529628917, 106.11889105758846, 106.16400963371836, 106.87688313657122, 107.04833372586494, 107.29197403696655, 107.80632580484773, 108.66357875131634, 108.41091472498874, 108.26653528137298, 108.65455503609034, 108.7447921883502, 108.7447921883502, 108.3116538575029, 108.239464135695, 108.75381590357618, 108.7989344797061, 108.73576847312421, 108.7447921883502, 108.82600562538407, 109.00647992990378, 108.62748389041239, 108.19434555956508, 108.19434555956508]",104.54382710370935,1.8794673000084003,None
reward-effort-pgACC-TUS,R88533/RE002,A_7,1,2024-08-01_11h37.31.106,2024-08-01 11:38:50,None,None,5,,,3.3819305419921877,1,6,avoid,normal,reward,None,65,-20,-19,accept,2.11497120000422,success,0,0,"[0.30680631768350397, 0.30680631768350397, 0.3429011785874457, 0.3429011785874457, 0.32485374813547485, 0.32485374813547485, 0.3429011785874457, 0.3429011785874457, 0.35192489381343106, 0.32485374813547485, 0.3429011785874457, 0.3429011785874457, 0.3158300329094894, 0.3429011785874457, 0.33387746336146024, 0.33387746336146024, 0.43313833084729975, 0.5955652049150372, 1.0557746814402933, 1.0557746814402933, 1.7957193299710972, 3.456082931552413, 8.040130266353001, 11.893256667848773, 11.893256667848773, 18.931754544117393, 24.46329197764645, 24.46329197764645, 28.939054729735215, 33.66748150815157, 35.67977000354632, 37.692058498941066, 37.692058498941066, 39.91189244453348, 41.915157224702234, 45.18174213650896, 45.18174213650896, 48.836346803033045, 52.79775778724064, 54.052054203652624, 56.15457985130722, 56.15457985130722, 60.11599083551481, 62.18242162226547, 66.36040177189672, 66.36040177189672, 68.52609342613322, 71.55806174206431, 73.84106169423863, 73.84106169423863, 74.51784033618753, 73.89520398559453, 72.56871784737469, 70.96249653714928, 70.96249653714928, 70.80006966308154, 72.42433840375891, 72.42433840375891, 71.4407534441265, 68.61633057839308, 66.63111322867627, 64.1405678263043, 64.1405678263043, 62.88627140989234, 62.606536237886786, 64.48346900489176, 64.48346900489176, 66.45063892415656, 66.14383260647307, 64.83539389870518, 64.83539389870518, 62.82310540331044, 62.1643741918135, 64.68199073986342, 64.68199073986342, 67.416176453337, 69.36529894214985, 70.69178508036971, 70.69178508036971, 72.73114472144242, 73.66961110494489, 73.70570596584885, 73.70570596584885, 73.07404590002986, 73.25452020454958, 74.88781266045294, 74.88781266045294, 78.19951614838958, 78.01904184386987, 76.67450827519804, 76.67450827519804, 75.85335018963337, 75.71799446124359, 74.96000238226081, 74.96000238226081, 74.07567829011424, 73.68765853539688, 74.01251228353235, 74.08470200534023, 73.2996387806795, 73.2996387806795, 72.90259531073615, 72.63188385395658, 72.63188385395658, 72.35214868195104]",70.6353140883103,1.7362212000007275,None
reward-effort-pgACC-TUS,R88533/RE002,A_7,1,2024-08-01_11h37.31.106,2024-08-01 11:38:50,None,None,5,,,3.3819305419921877,1,7,avoid,normal,reward,None,50,-80,-93,accept,1.240465700000641,success,0,0,"[0.7399446485308038, 0.7579920789827747, 0.7399446485308038, 0.7399446485308038, 0.7218972180788329, 0.7399446485308038, 0.7489683637567892, 0.7309209333048183, 0.7579920789827747, 0.7579920789827747, 0.76701579420876, 0.7940869398867163, 0.8482292312426287, 1.1279644032481764, 1.5520790188694908, 1.5520790188694908, 1.994241064942776, 2.8785651570893465, 3.7719129644619023, 4.836711361128181, 7.092640167624534, 8.527410888556213, 8.527410888556213, 10.485557092595048, 14.880106407649944, 18.218881041264545, 22.739762369483238, 27.26064369770193, 27.26064369770193, 30.274564583181057, 33.87502695834924, 35.779030871032155, 38.991473491482964, 44.035730302808815, 47.275244068937575, 49.95528749105524, 49.95528749105524, 54.44909767359597, 55.80265495749379, 55.540967215940206, 54.295694514754224, 53.645987018483275, 54.530311110629846, 55.513896070262255, 55.60413322252211, 55.47780120935831, 55.14392374599685, 54.78297513695743, 55.15294746122284, 55.910939540205604, 58.8887655647808, 61.361263536700804, 61.361263536700804, 64.07740181972241, 67.01010926816767, 67.8583384994103, 67.92150450599219, 67.26277329449526, 67.2988681553992, 67.51543732082284, 67.51543732082284, 67.52446103604883, 66.7393978113881, 65.04293934890285, 62.68774967492065, 61.045433503791315, 61.045433503791315, 58.988026432266636, 57.44497112862314, 55.8567972488497, 55.38756405709846, 54.84614114353933, 54.42202652791802, 54.03400677320065, 54.03400677320065, 53.9979119122967, 54.22350479294634, 55.16197117644882, 57.21035453274751, 58.50074581006343, 59.17752445201233, 60.86495919927161, 60.78374576223773, 60.78374576223773, 59.53847306105175, 59.23166674336824, 58.86169441910284, 57.95029918127832, 57.38180512204123]",58.82593376987397,1.68458690000989,None
reward-effort-pgACC-TUS,R88533/RE002,A_7,1,2024-08-01_11h37.31.106,2024-08-01 11:38:50,None,None,5,,,3.3819305419921877,1,8,avoid,normal,reward,None,85,-40,-32,accept,0.6902248999977019,success,0,0,"[0.658731211496935, 0.6767786419489058, 0.6406837810449643, 0.6406837810449643, 0.6316600658189788, 0.6406837810449643, 0.6858023571748914, 0.6767786419489058, 0.6767786419489058, 0.6497074962709497, 0.658731211496935, 0.6858023571748914, 0.6858023571748914, 0.658731211496935, 0.6677549267229205, 0.6767786419489058, 0.6767786419489058, 0.6767786419489058, 0.6948260724008768, 0.6948260724008768, 0.6948260724008768, 0.7038497876268621, 0.7128735028528476, 0.7309209333048183, 0.7309209333048183, 0.7399446485308038, 1.136988118474162, 3.38389320974453, 3.38389320974453, 8.184509709968768, 17.776718995191263, 27.720853174227184, 35.950481460325875, 35.950481460325875, 42.11367895967392, 48.159568161084145, 50.198927802156845, 50.198927802156845, 52.91506608517845, 55.044662878511005, 58.46465094915948, 61.47857183463861, 65.22341365342255, 65.22341365342255, 68.63437800884505, 72.29800639059512, 74.82464665387103, 74.82464665387103, 77.47761893031074, 79.5440497170614, 81.09612873593089, 82.38652001324681, 82.38652001324681, 84.01981246915017, 85.35532232259601, 85.6170100641496, 87.214207659149, 87.214207659149, 88.18876890355543, 89.10918785660594, 89.64158705493908, 89.64158705493908, 89.84913250513674, 90.44469771005178, 90.96807319315894, 90.96807319315894, 91.52754353717003, 92.42991505976858, 93.43154744985296, 93.32326286714114, 93.32326286714114, 93.06157512558755, 92.12310874208507, 91.96068186801733, 91.96068186801733, 91.7350889873677, 92.44796249022055, 91.74411270259368, 91.74411270259368, 91.64485183510784, 92.83598224493792, 92.29455933137879, 90.43567399482579, 90.43567399482579, 89.8762036508147, 90.13789139236827, 90.39957913392186, 90.39957913392186, 90.04765424010841, 89.85815622036273, 89.1994250088658, 89.1994250088658, 88.66702581053265, 88.74823924756653, 88.64897838008069, 88.64897838008069, 89.51525504177529, 89.53330247222726, 89.53330247222726, 89.83108507468476, 89.83108507468476, 89.47916018087135, 88.95578469776419, 88.94676098253821, 88.94676098253821, 89.19040129363981, 89.46111275041937, 89.51525504177529, 89.51525504177529, 89.2625910154477, 89.22649615454375]",89.62516685182294,1.8500334000127623,None
reward-effort-pgACC-TUS,R88533/RE002,A_7,1,2024-08-01_11h37.31.106,2024-08-01 11:38:50,None,None,5,,,3.3819305419921877,1,9,avoid,normal,reward,None,55,-20,-22,accept,1.3130766999966,success,0,0,"[0.44216204607328513, 0.44216204607328513, 0.44216204607328513, 0.47825690697722684, 0.4511857612992706, 0.46923319175124145, 0.47825690697722684, 0.47825690697722684, 0.5323991983331393, 0.6045889201410226, 0.6045889201410226, 0.6858023571748914, 0.8753003769205849, 0.9474900987284682, 1.073822111892264, 1.073822111892264, 1.2903912773159139, 1.5069604427395638, 1.7596244690671552, 1.7596244690671552, 2.165691654236499, 2.409331965338105, 2.932707448445259, 2.932707448445259, 3.6004623751681795, 5.423252850817232, 8.00403540544906, 8.00403540544906, 10.638960251436801, 14.880106407649944, 20.86282960247827, 20.86282960247827, 25.988299850837986, 31.501789853915074, 34.723256189591865, 34.723256189591865, 37.10551700925201, 40.498433934222525, 43.900374574419025, 43.900374574419025, 45.623904182582244, 48.231757882892026, 49.170224266394506, 49.170224266394506, 51.51639022515072, 51.96757598644999, 51.75100682102634, 51.75100682102634, 50.604994987326194, 51.82319654283422, 53.83548503822897, 55.36951662664649, 55.36951662664649, 57.49911341997904, 58.92486042568474, 60.9281252058535, 60.9281252058535, 61.677093569610285, 63.24722001893175, 64.99782077277291, 64.99782077277291, 67.19960728791337, 68.25538196935366, 68.80582859813876, 69.53674953144359, 69.53674953144359, 69.60893925325146, 68.69754401542694, 68.09295509528592, 66.6762318048062, 66.6762318048062, 64.86246504438314, 63.156982866671896, 62.85017654898839, 62.85017654898839, 63.05772199918606, 62.38094335723715, 61.93878131116387, 61.93878131116387, 61.65002242393234, 61.532714125994524, 61.532714125994524, 61.532714125994524, 61.63197499348036, 61.64099870870635, 61.37931096715277, 61.37931096715277, 61.65002242393234, 61.794401867548096, 61.39735839760474, 61.41540582805671, 61.41540582805671, 61.80342558277408, 61.677093569610285, 61.03640978856533, 61.03640978856533, 59.91746910054313, 59.28580903472416, 57.87810945947043, 57.87810945947043, 56.17262728175919, 55.15294746122284, 54.08814906455655, 54.08814906455655, 51.90440997986809, 49.982358636733196, 49.55824402111188, 49.55824402111188, 49.81993176266546, 51.011062172495535, 52.04878942348385, 52.04878942348385, 53.40234670738167, 53.78134274687305, 54.891259719669264, 56.163603566533205, 56.163603566533205, 57.986394042182255, 60.549129166362114, 61.83952044367803, 61.83952044367803, 63.328433455965616, 65.15122393161468, 67.51543732082284, 67.51543732082284, 68.8509471742687, 70.05110129932474, 69.53674953144359, 69.50065467053965, 69.50065467053965, 69.61796296847746, 69.36529894214985, 68.32757169116154, 68.32757169116154, 68.07490766483394, 67.96662308212213, 68.2914768302576, 68.2914768302576, 68.27342939980564, 68.21026339322373, 68.4087851281954, 68.661449154523, 68.661449154523, 69.27506178989, 69.05849262446637, 69.23896692898607, 69.23896692898607, 69.42846494873176, 69.45553609440972, 69.41041751827979, 69.41041751827979, 68.73363887633089, 68.09295509528592, 67.96662308212213, 67.76810134715045, 67.76810134715045, 67.06425155952358, 66.87475353977788, 66.82061124842198, 66.82061124842198, 66.77549267229205, 66.15285632169905, 65.34974566658636, 65.27755594477847, 65.27755594477847, 65.6926468451738, 66.01750059330928, 65.73776542130373, 65.73776542130373, 66.15285632169905, 65.99042944763131, 65.04293934890285, 65.04293934890285, 65.45803024929818]",66.13189801536774,2.8925601999944774,None
reward-effort-pgACC-TUS,R88533/RE002,A_7,1,2024-08-01_11h37.31.106,2024-08-01 11:38:50,None,None,5,,,3.3819305419921877,1,10,avoid,normal,reward,0.016,50,-20,-21,accept,1.076919099999941,success,0,0,"[2.2649525217223383, 2.2649525217223383, 2.2649525217223383, 2.4634742566940173, 2.698090852569638, 2.752233143925551, 2.752233143925551, 2.941731163671244, 3.3026797727106607, 4.033600706015479, 4.033600706015479, 5.296920837653437, 8.184509709968768, 11.360857469515635, 19.42805888154659, 19.42805888154659, 25.979276135612, 33.92916924970515, 38.621501167217566, 38.621501167217566, 43.81013742215917, 48.46637447876765, 52.0848842843878, 52.0848842843878, 55.107828885092914, 58.11272605534605, 60.549129166362114, 61.68611728483627, 61.68611728483627, 63.40062317777351, 65.31365080568241, 66.22504604350694, 66.22504604350694, 66.7484215266141, 67.3620341619811, 68.05686023438197, 67.62372190353467, 67.62372190353467, 67.01913298339366, 65.62045712336591, 65.62045712336591, 63.67133463455307, 63.06674571441204, 63.38257574732153, 63.38257574732153, 63.10284057531599, 62.52532280085292, 62.1643741918135, 62.1643741918135, 62.200469052717445, 62.8411528337624, 63.88790379997672, 63.88790379997672, 64.78125160734926, 64.79929903780123, 64.1495915415303, 63.301362310287665, 63.301362310287665, 63.31038602551365, 63.21112515802781, 62.624583668338765, 62.624583668338765, 62.272658774525325, 61.68611728483627, 61.30712124534489, 60.45889201410226, 59.57456792195569, 59.57456792195569, 59.30385646517613, 59.294832749950146, 59.294832749950146, 59.89039795486518, 60.332560000938464, 60.738627186107806, 60.59424774249204, 60.59424774249204, 59.854303093961235, 59.042168723622545, 59.141429591108384, 59.141429591108384, 59.94454024622109, 60.34158371616445]",61.92428419489915,1.3531993000069633,None
reward-effort-pgACC-TUS,R88533/RE002,A_7,1,2024-08-01_11h37.31.106,2024-08-01 11:38:50,None,None,5,,,3.3819305419921877,1,11,avoid,normal,reward,None,95,-20,-18,reject,1.3633017999964068,None,-18,-18,"null",None,None,None
reward-effort-pgACC-TUS,R88533/RE002,A_7,1,2024-08-01_11h37.31.106,2024-08-01 11:38:50,None,None,5,,,3.3819305419921877,1,12,avoid,normal,reward,None,80,-40,-38,accept,5.051734300010139,success,0,-18,"[0.5594703440110955, 0.5594703440110955, 0.568494059237081, 0.568494059237081, 0.568494059237081, 0.5955652049150372, 0.5865414896890517, 0.5865414896890517, 0.5865414896890517, 0.6045889201410226, 0.8482292312426287, 1.5611027340954762, 2.4183556805640904, 2.4183556805640904, 2.797351720055478, 3.3297509183886165, 4.177980149631246, 4.177980149631246, 4.81866393067621, 5.188636254941612, 6.4880512474835115, 6.4880512474835115, 8.897383212821616, 12.867817912255198, 21.368157655133455, 21.368157655133455, 28.06375435281463, 34.49766330894223, 41.572256046114795, 47.64521639320297, 47.64521639320297, 51.065204463851444, 55.3604929114205, 57.6525165788208, 60.93714892107948, 60.93714892107948, 62.85920026421438, 65.74678913652971, 66.85670610932591, 66.85670610932591, 67.72298277102051, 69.66308154460738, 70.53838192152796, 71.07078111986111, 71.07078111986111, 70.66471393469176, 73.29061506545351, 74.9690260974868, 74.9690260974868, 77.89270983070608, 79.56209714751338, 80.70810898121353, 80.70810898121353, 82.30530657621294, 82.86477692022403, 81.87216824536564, 81.87216824536564, 82.29628286098696, 83.95664646256827, 85.87869780570317, 85.95991124273704, 85.95991124273704, 86.83521161965761, 86.51035787152215, 85.5448203423417, 85.49970176621177, 85.49970176621177, 84.78682826335893, 85.11168201149441, 85.11168201149441, 85.33727489214404, 84.64244881974317, 84.57928281316126, 83.60472156875484, 83.60472156875484, 82.63016032434841, 82.97306150293586, 83.70398243624068, 83.70398243624068, 84.54318795225733, 83.72202986669265, 83.36108125765324, 83.55960299262492, 83.55960299262492, 84.57025909793528, 84.69659111109907, 85.4184883291779, 86.32988356700243, 86.32988356700243, 86.98861477849937, 86.70887960649382, 86.69985589126784, 86.69985589126784, 86.03210096454491, 85.6711523555055, 85.74334207731337, 85.74334207731337, 85.74334207731337, 85.52677291188974, 83.60472156875484, 82.16092713259717, 82.16092713259717, 81.93533425194754, 81.95338168239951, 81.85412081491367, 81.85412081491367, 81.2766030404506, 81.53829078200418, 81.67364651039397, 81.35781647748446, 81.35781647748446]",83.90148536465456,1.8445735999994213,None
reward-effort-pgACC-TUS,R88533/RE002,A_7,1,2024-08-01_11h37.31.106,2024-08-01 11:38:50,None,None,5,,,3.3819305419921877,1,13,avoid,normal,reward,None,50,-60,-59,accept,1.1240592000103788,success,0,-18,"[0.505328052655183, 0.4963043374291976, 0.5323991983331393, 0.5323991983331393, 0.5233754831071539, 0.6767786419489058, 0.9835849596324099, 0.9835849596324099, 1.642316171129345, 2.824422865733434, 4.033600706015479, 4.033600706015479, 7.5438259289238045, 10.53969938395096, 15.881738797734323, 20.99818533086805, 20.99818533086805, 27.74792431990514, 32.32294793947975, 34.55180560029814, 34.55180560029814, 38.197386551596246, 39.776536716143696, 40.39917306673669, 40.39917306673669, 40.597694801708364, 43.19652478679217, 46.0209476525256, 49.098034544586625, 49.098034544586625, 52.545093760913055, 53.22187240286196, 53.7542716011951, 53.7542716011951, 54.95442572625115, 54.16936250159042, 54.584453401985755, 56.506504745120644, 56.506504745120644, 57.19230710229554, 57.102069950035684, 58.04956004876416, 57.66154029404677, 57.66154029404677, 55.910939540205604, 55.568038361618164, 55.62218065297407, 55.62218065297407, 56.019224122917436, 57.11109366526167, 57.742753731080654, 58.031512618312185, 58.031512618312185, 58.24808178373583, 58.32929522076971, 58.28417664463977, 58.28417664463977, 57.21035453274751, 59.17752445201233, 61.35223982147482, 61.677093569610285, 61.41540582805671, 61.41540582805671, 61.117623225599196, 60.28744142480854, 59.37604618698401, 59.37604618698401, 59.258737889046195, 59.294832749950146, 58.60000667754927, 58.482698379611456, 58.482698379611456, 59.20459559769029, 58.90681299523277, 58.338318935995694, 58.30222407509174, 58.30222407509174, 58.338318935995694, 58.66317268413116, 58.78950469729496, 58.78950469729496, 58.762433551617, 58.59098296232328, 58.09467862489408, 57.56227942656095, 57.56227942656095, 57.96834661173028, 58.93388414091072, 58.798528412520945]",57.526184565657005,1.4889518999989377,None
reward-effort-pgACC-TUS,R88533/RE002,A_7,1,2024-08-01_11h37.31.106,2024-08-01 11:38:50,None,None,5,,,3.3819305419921877,1,14,avoid,normal,reward,None,95,-60,-57,accept,2.1945770000020275,success,0,-18,"[0.5414229135591248, 0.5323991983331393, 0.5414229135591248, 0.5323991983331393, 0.5323991983331393, 0.5323991983331393, 0.5143517678811685, 0.5143517678811685, 0.5143517678811685, 0.5233754831071539, 0.5414229135591248, 0.5414229135591248, 0.5414229135591248, 0.5414229135591248, 0.5504466287851101, 0.5594703440110955, 0.5594703440110955, 0.5775177744630664, 0.6858023571748914, 0.9384663835024829, 0.9384663835024829, 1.3084387077678847, 1.8137667604230678, 3.0770868920610255, 4.9179247981620495, 4.9179247981620495, 8.635695471268038, 15.845643936830383, 27.69378202854923, 40.372101921058736, 40.372101921058736, 48.258829028569984, 55.26123204393466, 61.88463901980795, 61.88463901980795, 67.01010926816767, 68.93216061130256, 71.84682062929585, 71.84682062929585, 74.54491148186548, 76.30453595093265, 78.90336593601644, 78.90336593601644, 80.73518012689148, 81.78193109310578, 83.18963066835951, 84.44392708477149, 84.44392708477149, 86.05917211022287, 87.4668716854766, 88.11657918174754, 88.3963143537531, 88.94676098253821, 88.94676098253821, 89.97546451830054, 90.76052774296127, 91.44633010013617, 91.44633010013617, 91.79825499394958, 92.82695852971193, 93.47666602598288, 93.47666602598288, 93.92785178728215, 94.50536956174523, 94.48732213129325, 94.46025098561529, 94.46025098561529, 94.90241303168857, 95.64235768021938, 96.29206517649033, 96.77934579869354, 97.15834183818492, 97.15834183818492, 97.09517583160303, 97.60050388425822, 97.63659874516215, 97.63659874516215, 97.63659874516215, 97.59148016903222, 97.59148016903222, 97.56440902335427, 97.56440902335427, 97.52831416245033, 97.51026673199836, 97.46514815586843, 97.32076871225267, 97.32076871225267, 97.49221930154638, 97.03200982502113, 96.67106121598171, 96.67106121598171, 96.32816003739427, 96.58984777894784, 96.67106121598171, 95.91306913699894, 95.91306913699894, 95.90404542177295, 96.23792288513442, 95.76868969338318, 95.52504938228157, 95.52504938228157, 95.49797823660361, 95.31750393208391, 94.93850789259251, 94.85729445555864, 94.85729445555864, 94.55951185310113, 94.48732213129325, 94.89338931646259, 94.89338931646259, 94.86631817078464, 94.64974900536099, 94.50536956174523, 94.50536956174523, 94.45122727038931, 94.1444209527058]",95.56942830962248,1.9311912999983178,None
reward-effort-pgACC-TUS,R88533/RE002,A_7,1,2024-08-01_11h37.31.106,2024-08-01 11:38:50,None,None,5,,,3.3819305419921877,1,15,avoid,normal,reward,None,55,-60,-61,accept,2.0932833999977447,success,0,-18,"[0.568494059237081, 0.6045889201410226, 0.6136126353670079, 0.6136126353670079, 0.6136126353670079, 0.5865414896890517, 0.658731211496935, 0.658731211496935, 0.8301818007906578, 1.1550355489261328, 1.4528181513836513, 1.4528181513836513, 2.5446876937278864, 3.61850980562015, 5.062304241777816, 5.062304241777816, 7.895750822737235, 10.611889105758845, 14.69060838790425, 14.69060838790425, 18.787375100501627, 22.69464379335331, 27.811090326487037, 27.811090326487037, 33.55919692543974, 35.923410314647924, 37.98984110139859, 37.98984110139859, 40.91352483461786, 44.3515603357183, 46.8872243142202, 48.45735076354166, 48.45735076354166, 49.61238631246779, 50.92082502023568, 53.700129309839184, 53.700129309839184, 55.947034401109555, 58.57293553187131, 60.70253232520386, 61.86659158935598, 61.86659158935598, 63.779619217264894, 64.89855990528707, 65.61143340813993, 65.61143340813993, 67.1815598574614, 67.69591162534256, 68.12002624096387, 68.26440568457964, 68.047836519156, 68.047836519156, 67.62372190353467, 67.46129502946694, 67.10034642042753, 65.24146108387453, 65.24146108387453, 64.17666268720825, 63.04869828396007, 63.04869828396007, 62.42606193336708, 62.40801450291511, 62.444109363819045, 62.07413703955365, 62.07413703955365, 61.677093569610285, 61.61392756302839, 61.776354437096124, 61.776354437096124, 61.76733072187014, 62.2907062049773, 63.301362310287665, 63.355504601643574, 63.355504601643574, 63.87888008475073, 64.90758362051307, 64.79027532257525, 64.79027532257525, 64.52858758102168, 65.71971799085176, 67.05522784429759, 67.16351242700942, 67.16351242700942, 66.22504604350694, 64.71808560076737, 63.779619217264894, 62.895295125118324, 62.895295125118324, 62.029018463423725, 61.46052440418664, 61.12664694082518, 61.12664694082518, 61.15371808650314, 60.95519635153146, 60.26037027913058, 59.76406594170138, 59.76406594170138]",63.339494784307135,1.6198531999980332,None
reward-effort-pgACC-TUS,R88533/RE002,A_7,1,2024-08-01_11h37.31.106,2024-08-01 11:38:50,None,None,5,,,3.3819305419921877,1,16,avoid,normal,reward,None,65,-100,-115,accept,0.8253662000061013,success,0,-18,"[1.5069604427395638, 1.5430553036435055, 1.6513398863553304, 1.8769327670049658, 2.833446580959419, 3.7809366796878874, 4.9179247981620495, 6.66852555200322, 7.976964259771104, 7.976964259771104, 13.066339647226876, 17.298462088214034, 17.298462088214034, 21.720082548946888, 27.964493485328788, 33.73064751473347, 38.38688457134194, 43.55747339583158, 47.491813234361224, 49.08901082936064, 52.906042369952466, 56.5967418973805, 59.38506990221, 61.10859951037321, 61.45150068896066, 62.32680106588124, 62.696773390146646, 62.417038218141094, 61.74928329141818, 61.59588013257642, 61.71318843051423, 61.82147301322606, 62.49825165517496, 63.0306508535081, 64.31201841559803, 66.69427923525818, 67.33496301630313, 70.54740563675395, 73.80496683333469, 76.37672567274053, 78.84922364466053, 79.74257145203309, 80.61787182895367, 81.04198644457499, 81.48414849064827, 81.655599079942, 81.8360733844617, 81.39391133838842, 80.88858328573323, 80.65396668985761, 80.40130266353002, 80.43739752443396, 80.40130266353002, 79.74257145203309, 79.15602996234404, 77.83856753935017, 76.41282053364446, 74.69831464070724, 73.61546881358899, 71.81974948361788, 72.35214868195104, 72.72212100621644, 72.22581666878723, 72.04534236426753, 73.01990360867396, 73.2364727740976, 73.95836999217643, 74.38248460779775, 74.32834231644185, 74.37346089257176, 75.30290356084826, 74.94195495180884, 74.06665457488826, 74.3463897468938, 74.7795280777411, 74.44565061437964, 74.06665457488826, 73.07404590002986]",74.82503064175297,1.696868999992148,None
reward-effort-pgACC-TUS,R88533/RE002,A_7,1,2024-08-01_11h37.31.106,2024-08-01 11:38:50,None,None,5,,,3.3819305419921877,1,17,avoid,normal,reward,None,75,-20,-21,reject,1.9446888999955263,None,-21,-39,"null",None,None,None
reward-effort-pgACC-TUS,R88533/RE002,A_7,1,2024-08-01_11h37.31.106,2024-08-01 11:38:50,None,None,5,,,3.3819305419921877,1,18,avoid,normal,reward,0.002,90,-20,-22,reject,2.812007900007302,None,-22,-61,"null",None,None,None
reward-effort-pgACC-TUS,R88533/RE002,A_7,1,2024-08-01_11h37.31.106,2024-08-01 11:38:50,None,None,5,,,3.3819305419921877,1,19,avoid,normal,reward,None,80,-60,-52,accept,4.381853200000478,success,0,-61,"[0.5865414896890517, 0.568494059237081, 0.5594703440110955, 0.5594703440110955, 0.5414229135591248, 0.5414229135591248, 0.5233754831071539, 0.5504466287851101, 0.5504466287851101, 0.568494059237081, 0.5775177744630664, 0.5775177744630664, 0.568494059237081, 0.6226363505929934, 0.9835849596324099, 0.9835849596324099, 1.4347707209316805, 3.2304900509027776, 7.318233048274168, 7.318233048274168, 13.291932527876513, 19.807054921037977, 27.423070571769664, 34.4525447328123, 34.4525447328123, 38.73880946515537, 45.190765851734945, 48.81829937258107, 48.81829937258107, 53.0774929592462, 57.99541775740824, 60.025753683254955, 61.64099870870635, 61.64099870870635, 63.17503029712387, 68.43585627387337, 71.11589969599102, 71.11589969599102, 73.7327771115268, 75.34802213697819, 76.56622369248622, 76.56622369248622, 76.94521973197762, 79.08384024053615, 79.89597461087483, 79.89597461087483, 80.86151214005528, 81.69169394084594, 82.86477692022403, 83.37912868810521, 83.37912868810521, 85.10265829626842, 85.94186381228506, 86.85325905010959, 87.20518394392302, 87.20518394392302, 87.74660685748215, 88.04438945993967, 88.04438945993967, 87.90903373154988, 87.90903373154988, 87.93610487722783, 87.93610487722783, 87.56613255296244, 87.01568592417732, 86.59157130855601, 86.14038554725674, 86.14038554725674, 86.19452783861266, 86.31183613655047, 87.03373335462929, 87.03373335462929, 86.38402585835834, 87.214207659149, 87.25932623527893, 87.25932623527893, 86.64571359991193, 86.4832867258442, 86.86228276533558, 87.62929855954434, 87.62929855954434, 87.80977286406404, 87.55710883773645, 87.58417998341442, 87.58417998341442, 87.63832227477032, 87.06080450030726, 86.88033019578755, 86.4832867258442, 86.2937887060985, 86.2937887060985, 85.39141718349995, 84.48002194567542, 83.8754330255344, 83.8754330255344, 83.71300615146666, 83.42424726423513, 83.43327097946111, 83.71300615146666, 83.71300615146666, 84.4349033695455, 83.76714844282259]",85.28007618111481,1.6940663999994285,None
reward-effort-pgACC-TUS,R88533/RE002,A_7,1,2024-08-01_11h37.31.106,2024-08-01 11:38:50,None,None,5,,,3.3819305419921877,1,20,avoid,normal,reward,None,75,-40,-42,accept,4.323525300002075,success,0,-61,"[0.46923319175124145, 0.47825690697722684, 0.47825690697722684, 0.47825690697722684, 0.46923319175124145, 0.4963043374291976, 0.4963043374291976, 0.47825690697722684, 0.47825690697722684, 0.5143517678811685, 0.5143517678811685, 0.4963043374291976, 0.4872806222032122, 0.47825690697722684, 0.47825690697722684, 0.47825690697722684, 0.47825690697722684, 0.5233754831071539, 0.5233754831071539, 0.5143517678811685, 0.5865414896890517, 0.6045889201410226, 0.6045889201410226, 0.6497074962709497, 0.7399446485308038, 0.9565138139544537, 0.9565138139544537, 1.1640592641521181, 1.858885336552995, 3.059039461609055, 5.387157989913291, 5.387157989913291, 8.563505749460155, 15.250078731915345, 21.557655674879147, 21.557655674879147, 28.848817577475362, 34.461568448038285, 38.46809800837581, 38.46809800837581, 40.55257622557844, 40.859382543261944, 42.3753667012275, 42.3753667012275, 45.10955241470108, 47.59107410184706, 51.0922756095294, 54.7378565608275, 54.7378565608275, 59.11435844543044, 62.09218447000562, 65.72874170607774, 69.79843727299716, 69.79843727299716, 73.66058738971891, 74.29224745553789, 75.19461897813645, 75.19461897813645, 76.35867824228856, 76.31355966615862, 77.42347663895484, 78.2536584397455, 78.2536584397455, 77.45054778463279, 77.30616834101703, 78.45218017471717, 78.45218017471717, 78.70484420104476, 79.16505367757001, 79.33650426686374, 79.33650426686374, 79.75159516725907, 79.88695089564885, 79.40869398867162, 79.28236197550783, 79.28236197550783, 79.51697857138345, 79.80573745861498, 80.1666860676544, 80.1666860676544, 80.39227894830402, 80.60884811372769, 80.29301808081819, 79.83280860429294, 79.83280860429294, 79.2372433993779, 79.42674141912359, 79.6703817302252, 79.6703817302252, 79.7335477368071, 79.90499832610082, 79.8598797499709, 79.8598797499709, 79.84183231951893, 80.05840148494258, 80.42837380920798, 80.30204179604418, 80.30204179604418, 80.76225127256944, 80.99686786844505, 80.9607730075411, 80.9607730075411, 80.97882043799308, 80.74420384211747, 80.18473349810637, 79.99523547836067, 79.99523547836067, 80.45544495488593, 80.58177696804972, 80.65396668985761, 80.65396668985761, 80.5456821071458, 79.75159516725907, 77.69418809573439, 77.91978097638403, 77.91978097638403]",79.2165761806345,1.9354974000016227,None
reward-effort-pgACC-TUS,R88533/RE002,A_7,1,2024-08-01_11h37.31.106,2024-08-01 11:38:50,None,None,5,,,3.3819305419921877,1,21,avoid,normal,reward,None,90,-40,-37,reject,1.5837963000085438,None,-37,-98,"null",None,None,None
reward-effort-pgACC-TUS,R88533/RE002,A_7,1,2024-08-01_11h37.31.106,2024-08-01 11:38:50,None,None,5,,,3.3819305419921877,1,22,avoid,normal,reward,None,60,-60,-59,accept,2.7470205999998143,success,0,-98,"[0.4511857612992706, 0.4511857612992706, 0.47825690697722684, 0.46923319175124145, 0.460209476525256, 0.47825690697722684, 0.47825690697722684, 0.4872806222032122, 0.47825690697722684, 0.47825690697722684, 0.4511857612992706, 0.4511857612992706, 0.43313833084729975, 0.43313833084729975, 0.46923319175124145, 0.47825690697722684, 0.460209476525256, 0.460209476525256, 0.4872806222032122, 0.4872806222032122, 0.47825690697722684, 0.47825690697722684, 0.46923319175124145, 0.46923319175124145, 0.44216204607328513, 0.44216204607328513, 0.460209476525256, 0.43313833084729975, 0.460209476525256, 0.6497074962709497, 0.6497074962709497, 1.5611027340954762, 4.006529560337523, 7.913798253189206, 14.45599179202863, 14.45599179202863, 19.482201172902506, 24.309888818804698, 29.976781980723537, 29.976781980723537, 34.23597556738866, 37.358181035579605, 40.91352483461786, 40.91352483461786, 44.68543779907976, 47.83471441294867, 49.82895547789145, 49.82895547789145, 53.15870639628007, 57.47204227430108, 61.07250464946927, 62.74189196627656, 62.74189196627656, 64.65491959418547, 67.11839385087949, 68.56218828703716, 68.56218828703716, 69.01337404833643, 69.93379300138695, 71.21516056347687, 71.21516056347687, 70.99859139805322, 69.4645598096357, 68.80582859813876, 67.91248079076621, 67.91248079076621, 66.18895118260299, 63.86083265429876, 63.86083265429876, 62.344848496333206, 61.532714125994524, 61.28005009966693, 61.49661926509058, 61.49661926509058, 61.82147301322606, 62.759939396728534, 62.759939396728534, 66.42356777847863, 69.50065467053965, 72.62286013873059, 72.62286013873059, 74.22908144895601, 76.46696282500038, 76.58427112293819, 77.27909719533906, 77.27909719533906, 76.87303001016971, 76.19625136822081, 75.09535811065061, 74.94195495180884, 74.94195495180884, 74.59003005799542, 73.81399054856067, 73.16428305228972, 73.16428305228972, 71.86486805974782, 71.04370997418314, 70.3308364713303, 69.97891157751687, 70.05110129932474, 70.05110129932474, 70.61057164333585, 70.54740563675395, 70.25864674952241, 70.25864674952241, 70.33986018655628, 70.31278904087833, 70.60154792810987, 71.12492341121701, 71.12492341121701]",69.23097872206472,1.8380799000005936,None
reward-effort-pgACC-TUS,R88533/RE002,A_7,1,2024-08-01_11h37.31.106,2024-08-01 11:38:50,None,None,5,,,3.3819305419921877,1,23,avoid,normal,reward,None,65,-20,-19,accept,3.0195327999972505,success,0,-98,"[0.5323991983331393, 0.5233754831071539, 0.5323991983331393, 0.5323991983331393, 0.505328052655183, 0.5414229135591248, 0.5414229135591248, 0.5143517678811685, 0.505328052655183, 0.4872806222032122, 0.47825690697722684, 0.47825690697722684, 0.4963043374291976, 0.505328052655183, 0.5323991983331393, 0.5323991983331393, 0.5775177744630664, 0.6406837810449643, 0.857252946468614, 1.335509853445841, 1.335509853445841, 2.039359641072703, 3.7628892492359163, 6.533169823613438, 6.533169823613438, 10.025347616069793, 14.762798109712133, 20.99818533086805, 20.99818533086805, 26.331201029425433, 29.056363027673026, 32.8463234225869, 32.8463234225869, 33.98331154106106, 35.50831941425259, 37.72815335984501, 37.72815335984501, 40.68793195396822, 44.62227179249786, 47.94299899566049, 47.94299899566049, 50.69523213958605, 54.4942162497259, 59.12338216065641, 59.12338216065641, 61.911710165485914, 65.78288399743364, 68.13807367141584, 70.23157560384446, 70.23157560384446, 71.78365462271395, 71.47684830503044, 71.47684830503044, 71.09785226553906, 70.7549510869516, 71.36856372231863, 72.03631864904155, 72.03631864904155, 71.52196688116037, 71.29637400051074, 72.21679295356125, 72.21679295356125, 72.76723958234636, 72.9296664564141, 73.46206565474724, 73.46206565474724, 74.06665457488826, 75.20364269336243, 76.93619601675162, 76.93619601675162, 76.66548455997206, 76.32258338138462, 77.08057546036738, 77.08057546036738, 77.22495490398316, 77.39640549327687, 78.90336593601644, 78.90336593601644, 79.6703817302252, 79.10188767098812, 78.02806555909586, 77.82954382412419, 77.82954382412419, 77.18886004307922, 77.22495490398316, 78.01904184386987, 78.01904184386987, 76.44891539454841, 74.67124349502929, 73.87715655514256, 73.87715655514256, 73.66058738971891, 72.98380874777001, 73.24549648932359, 73.65156367449292, 73.65156367449292, 73.08306961525585, 72.96576131731804, 73.01087989344796, 73.01087989344796, 72.55067041692271, 72.78528701279832, 73.29061506545351, 73.29061506545351, 73.75984825720475, 73.7418008267528]",73.957186554114,1.7517050000024028,None
reward-effort-pgACC-TUS,R88533/RE002,A_7,1,2024-08-01_11h37.31.106,2024-08-01 11:38:50,None,None,5,,,3.3819305419921877,1,24,avoid,normal,reward,None,90,-40,-36,accept,2.419080199993914,success,0,-98,"[2.102525647654601, 2.607853700309784, 2.824422865733434, 2.824422865733434, 3.2485374813547483, 4.304312162795042, 6.370742949545701, 6.370742949545701, 7.6701579420876005, 9.276379252313003, 10.83748198640848, 13.364122249684396, 13.364122249684396, 16.30585341335564, 20.09581380826951, 20.09581380826951, 27.69378202854923, 34.93080163978953, 42.3753667012275, 47.518884380039175, 47.518884380039175, 52.22926372800356, 58.78048098206897, 61.63197499348036, 61.63197499348036, 63.301362310287665, 65.11512907071074, 67.69591162534256, 67.69591162534256, 70.47521591494606, 73.50718423087716, 76.2052750834468, 79.02969794918023, 80.82541727915134, 80.82541727915134, 81.78193109310578, 83.90250417121236, 86.62766616945994, 86.62766616945994, 87.79172543361207, 88.85652383027835, 90.50786371663368, 92.17725103344098, 92.17725103344098, 93.1518122778474, 93.57592689346872, 93.57592689346872, 93.56690317824274, 94.7038912967169, 95.71454740202726, 96.60789520939981, 96.60789520939981, 96.86055923572741, 96.46351576578405, 96.55375291804391, 96.55375291804391, 95.54309681273354, 95.20019563414608, 94.99265018394844, 94.99265018394844, 95.11898219711222, 95.0016738991744, 94.81217587942872, 94.81217587942872, 94.69486758149091, 94.5865829987791, 94.5865829987791, 94.5865829987791, 94.28880039632158, 94.21661067451369, 94.63170157490902, 94.44220355516332, 94.44220355516332, 94.60463042923107, 94.5865829987791, 94.17149209838375, 94.17149209838375, 94.11734980702785, 93.92785178728215, 93.3413102975931, 93.29619172146317, 93.29619172146317, 92.77281623835601, 92.67355537087018, 92.67355537087018, 92.50210478157645, 92.50210478157645, 90.97709690838492, 90.70638545160537, 90.70638545160537, 90.70638545160537, 90.11082024669032, 90.2461759750801, 91.04928663019281, 91.46437753058814, 92.42089134454258, 92.42089134454258, 92.72769766222609]",93.30861782111867,1.6235247000004165,None
reward-effort-pgACC-TUS,R88533/RE002,A_7,1,2024-08-01_11h37.31.106,2024-08-01 11:38:50,None,None,5,,,3.3819305419921877,1,25,avoid,normal,reward,None,50,-40,-39,accept,1.140624099993147,success,0,-98,"[0.6406837810449643, 0.6406837810449643, 0.6136126353670079, 0.6136126353670079, 0.6406837810449643, 0.6406837810449643, 0.6677549267229205, 0.658731211496935, 0.6677549267229205, 0.6677549267229205, 0.6677549267229205, 0.658731211496935, 0.6316600658189788, 0.6316600658189788, 0.658731211496935, 0.6677549267229205, 0.6858023571748914, 0.6858023571748914, 0.8933478073725557, 1.4979367275135784, 2.3100710978522656, 3.3658457792925587, 3.3658457792925587, 5.58567972488497, 9.041762656437383, 12.62417760115359, 12.62417760115359, 17.903051008355057, 22.198339455924113, 27.982540915780763, 27.982540915780763, 32.32294793947975, 34.91275420933756, 36.32947749981727, 36.32947749981727, 38.459074293149826, 40.84133511280997, 43.512354819701656, 43.512354819701656, 45.786331056649985, 49.34167485568823, 52.17512143664765, 52.833852648144585, 52.833852648144585, 53.63696330325729, 55.45073006368035, 57.78787230721058, 57.78787230721058, 59.30385646517613, 60.82886433836766, 61.20786037785905, 60.837888053593645, 60.837888053593645, 60.17915684209672, 58.29320035986576, 58.29320035986576, 58.988026432266636, 58.988026432266636, 59.159477021560356, 59.45725962401788, 59.82723194828328, 59.82723194828328, 59.89942167009117, 59.83625566350926, 61.18981294740708, 61.18981294740708, 61.57783270212445, 63.06674571441204, 65.70167056039978, 65.74678913652971, 65.74678913652971, 64.23080497856417, 62.489227939948975, 61.99292360251978, 61.99292360251978, 61.6680698543843, 61.19883666263306, 61.01836235811335, 61.01836235811335, 60.693508609977876, 59.709923650345466, 58.726338690713064, 57.78787230721058, 57.78787230721058, 56.696002764866336, 56.61478932783247, 56.903548215064006, 57.34571026113729, 57.34571026113729, 57.90518060514839, 57.41789998294517, 56.93964307596795, 57.1562122413916, 57.1562122413916, 58.347342651221666, 59.94454024622109, 61.03640978856533, 61.03640978856533, 60.9281252058535, 60.96422006675745, 60.95519635153146, 60.95519635153146]",59.319284107336685,1.6842741000000387,None
reward-effort-pgACC-TUS,R88533/RE002,A_7,1,2024-08-01_11h37.31.106,2024-08-01 11:38:50,None,None,5,,,3.3819305419921877,1,26,avoid,normal,reward,None,75,-60,-51,accept,1.1161140000040177,success,0,-98,"[0.6677549267229205, 0.658731211496935, 0.6316600658189788, 0.6316600658189788, 0.6677549267229205, 0.6677549267229205, 0.6316600658189788, 0.6316600658189788, 0.6406837810449643, 0.6406837810449643, 0.6497074962709497, 0.6497074962709497, 0.6677549267229205, 0.6316600658189788, 0.6497074962709497, 0.6497074962709497, 0.6497074962709497, 0.6497074962709497, 0.6948260724008768, 0.6948260724008768, 1.732553323389199, 5.594703440110956, 9.664399007030376, 9.664399007030376, 18.498616213270093, 27.49526029357755, 36.81675812202048, 36.81675812202048, 41.915157224702234, 47.564002956169105, 52.15707400619568, 54.59347711721174, 54.59347711721174, 58.031512618312185, 59.96258767667306, 61.93878131116387, 61.93878131116387, 64.54663501147365, 67.28984444017321, 72.22581666878723, 72.22581666878723, 73.9854411378544, 74.65319606457732, 76.9542434472036, 79.24626711460388, 79.24626711460388, 80.38325523307805, 81.36684019271046, 81.36684019271046, 81.72778880174988, 81.99850025852943, 82.12483227169324, 82.24214056963103, 82.24214056963103, 82.0797136955633, 81.44805362974432, 81.47512477542229, 81.47512477542229, 81.74583623220184, 81.04198644457499, 80.65396668985761, 80.65396668985761, 80.87955957050724, 80.74420384211747, 80.50056353101586, 80.97882043799308, 80.97882043799308, 80.91565443141118, 80.56372953759777, 80.89760700095921, 81.04198644457499, 81.04198644457499, 80.41935009398199, 80.22985207423629, 80.2839943655922, 79.68842916067717, 79.68842916067717, 79.81476117384096, 79.78769002816301, 79.36357541254169, 79.36357541254169, 77.52273750644068, 76.6384134142941, 75.20364269336243, 74.80659922341907, 74.81562293864505, 74.81562293864505, 75.82627904395541, 76.4579391097744, 75.6548284546617, 74.75245693206315, 74.75245693206315, 74.00348856830637, 73.95836999217643, 74.97804981271278, 74.97804981271278, 77.24300233443513, 79.21919596892593, 79.90499832610082, 79.58916829319134]",78.76830606714226,1.6727767999982461,None
reward-effort-pgACC-TUS,R88533/RE002,A_7,1,2024-08-01_11h37.31.106,2024-08-01 11:38:50,None,None,5,,,3.3819305419921877,1,27,avoid,normal,reward,None,100,-60,-63,reject,2.5129345999885118,None,-63,-161,"null",None,None,None
reward-effort-pgACC-TUS,R88533/RE002,A_7,1,2024-08-01_11h37.31.106,2024-08-01 11:38:50,None,None,5,,,3.3819305419921877,1,28,avoid,normal,reward,0.0,55,-100,-95,accept,1.1276523000124143,success,0,-161,"[0.5955652049150372, 0.5955652049150372, 0.5955652049150372, 0.6045889201410226, 0.6136126353670079, 0.6136126353670079, 0.6136126353670079, 0.6226363505929934, 0.6136126353670079, 0.6316600658189788, 0.6136126353670079, 0.6677549267229205, 0.7038497876268621, 1.0557746814402933, 2.102525647654601, 3.546320083812267, 8.157438564290812, 12.678319892509505, 18.92273082889141, 24.87838287804178, 31.167912390553614, 36.04974232781172, 39.67727584865786, 44.3515603357183, 48.05128357837232, 49.95528749105524, 54.11522021023452, 57.08402251958371, 60.99129121243539, 62.128279330909564, 62.696773390146646, 63.66231091932708, 66.25211718918489, 66.85670610932591, 66.09871403034315, 63.31940974073963, 62.51629908562693, 62.17339790703949, 61.59588013257642, 60.05282482893291, 59.22264302814225, 59.05119243884853, 58.93388414091072, 58.275152929413785, 58.29320035986576, 58.35636636644765, 58.71731497548708, 61.22590780831102, 61.361263536700804, 61.677093569610285, 61.677093569610285, 64.48346900489176, 64.59175358760358, 63.996188382688544, 63.355504601643574, 62.471180509497, 61.87561530458196, 61.316144960570874, 60.99129121243539, 60.74765090133379, 59.736994796023424, 58.83462327342488, 58.239058068509856, 57.32766283068532, 56.948666791193936, 57.53520828088299, 58.70829126026109, 59.736994796023424, 60.41377343797233, 60.278417709582556, 58.80755212774693, 58.66317268413116]",60.76942551850953,1.6340757999860216,None
reward-effort-pgACC-TUS,R88533/RE002,A_7,1,2024-08-01_11h37.31.106,2024-08-01 11:38:50,None,None,5,,,3.3819305419921877,1,29,avoid,normal,reward,None,100,-60,-58,reject,4.208629600005224,None,-58,-219,"null",None,None,None
reward-effort-pgACC-TUS,R88533/RE002,A_7,1,2024-08-01_11h37.31.106,2024-08-01 11:38:50,None,None,5,,,3.3819305419921877,1,30,avoid,normal,reward,None,75,-80,-85,accept,1.594276700008777,success,0,-219,"[0.6316600658189788, 0.6497074962709497, 0.6677549267229205, 0.6406837810449643, 0.6497074962709497, 0.9835849596324099, 1.3896521448017536, 1.3896521448017536, 2.1115493628805866, 3.1131817529649672, 4.304312162795042, 7.43554134621198, 11.451094621775487, 11.451094621775487, 16.82020518123681, 26.5387464796231, 38.44102686269785, 45.623904182582244, 45.623904182582244, 49.44093572317407, 55.60413322252211, 61.00031492766138, 63.3374571711916, 66.48673378506051, 66.48673378506051, 68.96825547220651, 72.21679295356125, 74.12982058147016, 75.35704585220418, 76.61134226861614, 76.61134226861614, 77.35128691714695, 78.17244500271163, 79.3004094059598, 78.8131287837566, 78.8131287837566, 76.91814858629965, 78.41608531381323, 79.03872166440622, 78.10025528090374, 78.16342128748563, 78.1273264265817, 77.77540153276826, 77.42347663895484, 77.42347663895484, 78.17244500271163, 78.20853986361557, 78.27170587019747, 79.51697857138345, 80.37423151785207, 80.37423151785207, 79.97718804790871, 79.98621176313469, 80.32008922649615, 80.49153981578986, 80.49153981578986, 80.80736984869937, 81.06905759025294, 81.15027102728682, 80.81639356392535, 80.94272557708915, 80.74420384211747, 80.13961492197645, 80.13961492197645, 80.09449634584651, 80.5366583919198, 80.1035200610725, 79.88695089564885, 79.8598797499709, 79.8598797499709, 79.74257145203309, 78.34389559200534, 77.53176122166666, 76.90010115584768, 76.90912487107366, 76.5120814011303, 76.44891539454841, 76.32258338138462, 75.85335018963337, 75.90749248098928, 76.61134226861614]",78.51239296540692,1.5832774000009522,None
reward-effort-pgACC-TUS,R88533/RE002,A_7,1,2024-08-01_11h37.31.106,2024-08-01 11:38:50,None,None,5,,,3.3819305419921877,1,31,avoid,normal,reward,None,60,-20,-20,accept,2.169091699994169,success,0,-219,"[0.460209476525256, 0.4511857612992706, 0.4511857612992706, 0.46923319175124145, 0.4511857612992706, 0.460209476525256, 0.460209476525256, 0.460209476525256, 0.4511857612992706, 0.4511857612992706, 0.46923319175124145, 0.46923319175124145, 0.4872806222032122, 0.46923319175124145, 0.46923319175124145, 0.46923319175124145, 0.4963043374291976, 0.505328052655183, 0.6677549267229205, 0.6677549267229205, 1.028703535762337, 1.8227904756490534, 2.8514940114113903, 2.8514940114113903, 4.277241017117086, 6.749738989037088, 8.85226463669169, 8.85226463669169, 14.086019467763228, 18.047430451970822, 23.299232713494334, 27.65768716764529, 27.65768716764529, 31.447647562559162, 35.43612969244471, 35.43612969244471, 38.31469484953406, 42.60998329710311, 46.13825595046341, 48.520516770123564, 48.520516770123564, 51.55248508605466, 54.83711742831334, 55.84777353362371, 55.84777353362371, 56.876477069386056, 58.49172209483744, 60.38670229229438, 60.38670229229438, 61.162741801729126, 61.794401867548096, 61.794401867548096, 61.52369041076854, 60.26037027913058, 60.31451257048649, 61.68611728483627, 61.68611728483627, 62.489227939948975, 63.12991172099394, 62.796034257632485, 62.796034257632485, 63.94204609133263, 64.8895361900611, 66.07164288466518, 66.07164288466518, 66.81158753319599, 67.28082072494723, 69.00435033311044, 69.00435033311044, 70.59252421288387, 72.11753208607541, 72.16265066220534, 72.61383642350461, 72.61383642350461, 72.71309729099045, 71.82877319884388, 71.14297084166898, 71.14297084166898, 69.78941355777117, 67.9846705125741, 68.42683255864738, 68.7246151611049, 68.7246151611049, 68.20123967799773, 67.81321992328037, 67.3078918706252, 67.3078918706252, 66.7484215266141, 66.03554802376125, 65.99042944763131, 65.99042944763131, 67.16351242700942, 67.2988681553992, 67.67786419489059, 67.67786419489059, 68.20123967799773, 67.28082072494723, 67.2357021488173, 67.64176933398664, 67.64176933398664, 67.62372190353467, 68.89606575039862, 69.73527126641527, 69.73527126641527, 68.02076537347803, 67.28984444017321, 66.9920618377157]",66.65345062210453,1.7762877000059234,None
reward-effort-pgACC-TUS,R88533/RE002,A_7,1,2024-08-01_11h37.31.106,2024-08-01 11:38:50,None,None,5,,,3.3819305419921877,1,32,avoid,normal,reward,None,85,-40,-38,accept,1.1736913000058848,success,0,-219,"[0.6406837810449643, 0.6316600658189788, 0.6316600658189788, 0.6226363505929934, 0.5955652049150372, 0.5955652049150372, 0.5865414896890517, 0.5594703440110955, 0.5955652049150372, 0.6136126353670079, 0.6136126353670079, 0.6316600658189788, 0.8211580855646725, 1.0377272509883224, 1.5430553036435055, 1.5430553036435055, 2.1295967933325572, 2.959778594123215, 2.959778594123215, 3.681675812202048, 4.963043374291976, 6.830952426070956, 6.830952426070956, 8.924454358499572, 14.320636063638847, 18.985896835473305, 26.74629192982076, 26.74629192982076, 33.67650522337755, 39.02756835238691, 47.33841007551947, 47.33841007551947, 53.817437607776995, 59.926492815769116, 61.86659158935598, 61.86659158935598, 65.67459941472183, 69.50967838576562, 73.08306961525585, 73.08306961525585, 74.9690260974868, 76.62938969906811, 78.57851218788096, 78.57851218788096, 79.76061888248506, 80.65396668985761, 81.3397690470325, 81.36684019271046, 81.36684019271046, 81.66462279516797, 82.24214056963103, 83.37912868810521, 84.38978479341557, 84.38978479341557, 85.16582430285031, 85.91479266660711, 87.25932623527893, 87.68344085090025, 87.68344085090025, 88.06243689039164, 88.05341317516564, 88.50459893646492, 88.50459893646492, 88.73019181711456, 88.94676098253821, 89.19040129363981, 89.19040129363981, 89.02797441957208, 88.95578469776419, 88.72116810188857, 88.72116810188857, 88.6399546648547, 88.3331483471712, 88.30607720149324, 88.2068163340074, 88.2068163340074, 87.92708116200185, 87.81879657929002, 87.76465428793412, 87.76465428793412, 87.41272939412067, 87.11494679166316, 87.0878756459852, 87.3405396723128, 87.3405396723128, 87.4037056788947, 87.57515626818842, 87.45784797025061, 87.45784797025061, 87.13299422211513, 87.36761081799077, 87.51199026160651, 87.25932623527893, 87.25932623527893, 86.92544877191747, 87.00666220895134, 87.26834995050493, 86.77204561307572, 86.77204561307572, 86.88935391101353, 86.8442353348836, 87.00666220895134, 87.00666220895134, 87.02470963940331, 86.42012071926229, 83.7581247275966, 82.44066230460272]",86.82426481758017,1.7844271999929333,None
reward-effort-pgACC-TUS,R88533/RE002,A_7,1,2024-08-01_11h37.31.106,2024-08-01 11:38:50,None,None,5,,,3.3819305419921877,1,33,avoid,normal,reward,None,60,-100,-100,accept,1.1484594999928959,success,0,-219,"[0.7038497876268621, 0.7128735028528476, 0.7128735028528476, 0.7218972180788329, 0.7579920789827747, 0.9113952378245267, 1.1640592641521181, 1.4979367275135784, 1.858885336552995, 2.833446580959419, 3.4741303620043835, 4.565999904348619, 5.80224889030862, 7.913798253189206, 9.781707304968187, 12.001541250560598, 14.528181513836513, 18.029383021518854, 21.738129979398856, 27.847185187390984, 33.60431550156967, 36.84382926769844, 41.0127857021037, 45.32612158012472, 48.26785274379597, 50.027477212863126, 53.600868442353345, 54.42202652791802, 55.910939540205604, 57.02085651300182, 57.742753731080654, 57.102069950035684, 58.627077823227225, 60.377678577068394, 60.74765090133379, 61.07250464946927, 61.46052440418664, 62.36289592678518, 63.19307772757584, 64.7632041768973, 67.51543732082284, 69.61796296847746, 71.31442143096271, 72.46945697988885, 72.79431072802431, 71.16101827212096, 70.5835004976579, 69.96988786229088, 69.13068234627424, 68.47195113477731, 67.94857565167015, 67.81321992328037, 67.56957961217877, 67.56055589695278, 67.70493534056854, 69.90672185570898, 72.51457555601877, 72.07241350994549, 71.99120007291161, 71.72951233135804, 71.29637400051074, 69.69917640551132, 68.01174165825205, 67.46129502946694, 64.72710931599336, 63.969117237010586, 62.93138998602225, 61.812449298000075, 61.37931096715277, 61.262002669214965, 61.02738607333934, 61.009338642887364, 60.61229517294401, 59.41214104788796]",65.75380758170547,1.7203956000012113,None
reward-effort-pgACC-TUS,R88533/RE002,A_7,1,2024-08-01_11h37.31.106,2024-08-01 11:38:50,None,None,5,,,3.3819305419921877,1,34,avoid,normal,reward,0.004,55,-20,-19,accept,1.6472604000009596,success,0,-219,"[1.1730829793781035, 1.1730829793781035, 1.1640592641521181, 1.1640592641521181, 1.182106694604089, 1.182106694604089, 1.1911304098300743, 1.1911304098300743, 1.1911304098300743, 1.6693873168073012, 2.6800434221176674, 2.6800434221176674, 3.8531264014957713, 8.202557140420739, 11.144288304091983, 11.144288304091983, 16.72094431375097, 21.449371092167326, 27.621592306741345, 27.621592306741345, 32.097355058830104, 35.02103879204938, 37.61986877713318, 37.61986877713318, 39.875797583629534, 41.20228372184939, 43.9815880114529, 43.9815880114529, 45.154670990831, 47.24817292325962, 48.60173020715743, 48.60173020715743, 49.27850884910633, 49.39581714704415, 50.03650092808911, 50.03650092808911, 51.958552271224, 53.26699097899189, 54.5573822563078, 55.01759173283306, 55.01759173283306, 54.47616881927393, 55.57706207684415, 57.697635154950724, 57.697635154950724, 58.2661292141878, 58.80755212774693, 60.81984062314167, 60.81984062314167, 61.6680698543843, 61.37931096715277, 60.70253232520386, 60.70253232520386, 60.350607431390436, 59.1324058758824, 59.448235908791894, 59.448235908791894, 60.04380111370693, 59.41214104788796, 58.46465094915948, 58.46465094915948, 57.453994843849124, 56.19067471221116, 55.44170634845437, 55.180018606900795, 55.180018606900795, 55.34244548096853, 55.60413322252211, 55.54999093116619, 54.485192534499916, 54.485192534499916, 53.257967263765906, 52.472904039105174, 52.472904039105174, 54.33178937565817, 55.540967215940206, 57.453994843849124, 58.699267545035106, 58.699267545035106, 57.9593228965043, 56.89452449983802, 56.13653242085525, 56.13653242085525, 56.01020040769144, 55.6131569377481, 56.07336641427335, 57.70665887017671, 57.70665887017671, 58.410508657803575, 58.57293553187131, 58.42855608825555, 58.42855608825555, 57.56227942656095, 57.90518060514839, 58.202963207605904, 58.202963207605904, 57.0930462348097, 57.9593228965043]",57.214496565965995,1.6182796999928541,None
reward-effort-pgACC-TUS,R88533/RE002,A_7,1,2024-08-01_11h37.31.106,2024-08-01 11:38:50,None,None,5,,,3.3819305419921877,1,35,avoid,normal,reward,None,65,-60,-54,accept,1.2548338000051444,success,0,-219,"[0.6316600658189788, 0.6226363505929934, 0.6226363505929934, 0.6136126353670079, 0.6316600658189788, 0.6226363505929934, 0.6226363505929934, 0.6497074962709497, 0.6406837810449643, 0.6406837810449643, 0.6677549267229205, 0.658731211496935, 0.8211580855646725, 0.8211580855646725, 1.714505892937228, 3.1853714747728503, 4.692331917512414, 4.692331917512414, 8.509363458104243, 12.118849548498407, 18.13766760423068, 24.01210621634718, 24.01210621634718, 29.51657250419828, 36.01364746690778, 40.22772247744297, 44.89298324927742, 44.89298324927742, 49.215342842524436, 53.952793336166785, 53.952793336166785, 57.46301855907511, 60.9281252058535, 61.89366273503394, 64.50151643534372, 66.89280097022986, 66.89280097022986, 67.51543732082284, 68.19221596277175, 67.39812902288504, 67.39812902288504, 67.65981676443862, 68.26440568457964, 68.26440568457964, 68.15612110186781, 67.83126735373234, 65.89116858014548, 64.66394330941147, 64.66394330941147, 64.46542157443979, 64.71808560076737, 64.70906188554139, 64.70906188554139, 64.28494726992008, 64.16763897198227, 64.43835042876182, 64.69101445508942, 64.69101445508942, 66.03554802376125, 66.47771006983453, 67.75005391669848, 67.75005391669848, 67.96662308212213, 68.12002624096387, 68.76071002200884, 69.18482463763014, 69.18482463763014, 69.62698668370344, 70.47521591494606, 71.70244118568007, 71.53099059638636, 71.53099059638636, 69.67210525983336, 70.31278904087833, 71.18808941779892, 71.18808941779892, 71.12492341121701, 70.55642935197993, 70.60154792810987, 70.54740563675395, 70.54740563675395, 70.41204990836417, 70.06012501455074, 69.44651237918373, 68.53511714135921, 68.53511714135921, 68.77875745246081, 68.93216061130256, 68.86899460472067, 68.86899460472067, 68.8509471742687, 68.88704203517263, 68.56218828703716, 67.45227131424095, 67.45227131424095]",67.9424628123235,1.5827961000031792,None
reward-effort-pgACC-TUS,R88533/RE002,A_7,1,2024-08-01_11h37.31.106,2024-08-01 11:38:50,None,None,5,,,3.3819305419921877,1,36,avoid,normal,reward,None,95,-40,-43,reject,2.3323626999917906,None,-43,-262,"null",None,None,None
reward-effort-pgACC-TUS,R88533/RE002,A_7,1,2024-08-01_11h37.31.106,2024-08-01 11:38:50,None,None,5,,,3.3819305419921877,1,37,avoid,normal,reward,None,60,-20,-21,accept,1.225309000001289,success,0,-262,"[0.6226363505929934, 0.6136126353670079, 0.6136126353670079, 0.6316600658189788, 0.6316600658189788, 0.6316600658189788, 0.6497074962709497, 0.6767786419489058, 0.6767786419489058, 0.6767786419489058, 0.6858023571748914, 0.6948260724008768, 0.6948260724008768, 0.8031106551127017, 1.2813675620899285, 2.4454268262420467, 2.4454268262420467, 4.060671851693436, 8.1032962729349, 10.927719138668333, 10.927719138668333, 15.078628142621623, 19.283679437930825, 22.676596362901343, 22.676596362901343, 26.737268214594774, 29.200742471288795, 31.898833323858433, 31.898833323858433, 33.61333921679566, 35.3188213945069, 37.529631624873325, 40.01115331201932, 40.01115331201932, 43.67478169376939, 45.53366703032239, 48.14152073063217, 48.14152073063217, 50.07259578899305, 52.73459178065875, 55.14392374599685, 58.78048098206897, 58.78048098206897, 59.74601851124941, 61.09055207992123, 61.09055207992123, 61.45150068896066, 61.32516867579686, 61.52369041076854, 61.61392756302839, 61.61392756302839, 61.334192391022846, 61.09957579514722, 60.125014550740794, 60.125014550740794, 57.70665887017671, 54.79199885218342, 54.76492770650546, 54.76492770650546, 55.20708975257875, 55.540967215940206, 56.01020040769144, 57.06597508913175, 57.06597508913175, 58.35636636644765, 58.41953237302956, 58.410508657803575, 58.410508657803575, 59.91746910054313, 61.262002669214965, 62.417038218141094, 64.0142358131405, 64.0142358131405, 64.71808560076737, 65.21438993819658, 65.21438993819658, 65.90921601059745, 65.78288399743364, 66.29723576531482, 66.93791954635978, 66.93791954635978, 68.06588394960797, 68.65242543929702, 68.76973373723483, 68.76973373723483, 68.61633057839308, 68.3546428368395, 67.9756467973481, 67.9756467973481, 68.02076537347803, 67.65079304921264, 66.10773774556912, 66.10773774556912, 65.21438993819658, 64.69101445508942, 64.26689983946811, 64.26689983946811, 64.33006584605, 62.87724769466635, 61.532714125994524, 61.532714125994524, 61.316144960570874, 61.361263536700804, 61.25297895398898, 61.09055207992123, 61.09055207992123, 61.334192391022846, 61.4244295432827, 61.4244295432827, 60.77472204701175, 60.47693944455423, 60.72960347088182, 60.72960347088182, 60.738627186107806, 61.75830700664415, 62.26363505929934, 61.812449298000075, 61.812449298000075, 61.49661926509058, 61.505642980316566, 61.505642980316566, 61.487595549864594, 61.433453258508685]",63.26171713519645,2.030688300001202,None
reward-effort-pgACC-TUS,R88533/RE002,A_7,1,2024-08-01_11h37.31.106,2024-08-01 11:38:50,None,None,5,,,3.3819305419921877,1,38,avoid,normal,reward,None,85,-100,-97,accept,1.5111538000055589,success,0,-262,"[0.6497074962709497, 0.6406837810449643, 0.6406837810449643, 0.658731211496935, 0.6497074962709497, 0.6767786419489058, 0.6767786419489058, 0.6767786419489058, 0.6767786419489058, 0.7038497876268621, 0.7038497876268621, 0.7760395094347454, 1.1099169727962055, 1.6784110320332866, 3.7538655340099316, 7.724300233443512, 10.891624277764391, 16.32390084380761, 24.752050864877983, 32.494398528773466, 38.54931144540968, 48.80025194212911, 53.9437696209408, 56.353101586278896, 58.60903039277525, 60.982267497209406, 62.46215679427102, 64.89855990528707, 67.91248079076621, 69.57284439234752, 70.79104594785555, 73.2364727740976, 74.44565061437964, 75.44728300446403, 75.10438182587659, 75.7089707460176, 77.29714462579103, 78.6777730553668, 78.4972987508471, 78.26268215497147, 78.94848451214636, 79.75159516725907, 80.15766235242842, 80.39227894830402, 80.50056353101586, 80.75322755734345, 80.94272557708915, 81.37586390793643, 81.44805362974432, 81.89021567581761, 82.28725914576097, 82.42261487415075, 82.30530657621294, 82.26018800008302, 82.72039747660827, 83.9927413234722, 84.58830652838725, 84.53416423703133, 84.6153776740652, 84.6785436806471, 84.84097055471484, 85.56286777279367, 85.56286777279367, 85.74334207731337, 85.77041322299134, 86.0411246797709, 86.1042906863528, 86.49231044107017, 86.92544877191747, 87.19616022869704, 87.1510416525671, 87.3405396723128, 87.44882425502463, 87.60222741386637, 87.70148828135221, 87.70148828135221, 87.74660685748215, 87.89098630109791, 87.90001001632389, 87.90903373154988, 88.03536574471367, 88.23388747968536, 88.03536574471367, 88.0173183142617, 88.00829459903572, 87.90903373154988, 87.62929855954434, 87.69246456612623, 87.70148828135221, 87.66539342044828, 87.2863973809569, 86.09526697112682]",85.73950219849381,2.0038304000045173,None
reward-effort-pgACC-TUS,R88533/RE002,A_7,1,2024-08-01_11h37.31.106,2024-08-01 11:38:50,None,None,5,,,3.3819305419921877,1,39,avoid,normal,reward,None,100,-20,-20,reject,0.8949811000056798,None,-20,-282,"null",None,None,None
reward-effort-pgACC-TUS,R88533/RE002,A_7,1,2024-08-01_11h37.31.106,2024-08-01 11:38:50,None,None,5,,,3.3819305419921877,1,40,avoid,normal,reward,None,100,-40,-35,reject,1.5008779000054346,None,-35,-317,"null",None,None,None
reward-effort-pgACC-TUS,R88533/RE002,A_7,1,2024-08-01_11h37.31.106,2024-08-01 11:38:50,None,None,5,,,3.3819305419921877,1,41,avoid,normal,reward,None,70,-40,-41,accept,2.3669843999959994,success,0,-317,"[0.6316600658189788, 0.6226363505929934, 0.6316600658189788, 0.6316600658189788, 0.6406837810449643, 0.6316600658189788, 0.6406837810449643, 0.6406837810449643, 0.6497074962709497, 0.6497074962709497, 0.6677549267229205, 0.6677549267229205, 0.6677549267229205, 0.658731211496935, 0.6948260724008768, 0.7399446485308038, 0.7399446485308038, 1.0467509662143077, 1.4257470057056951, 2.779304289603507, 2.779304289603507, 5.594703440110956, 8.274746862228623, 10.85552941686045, 15.376410745079141, 19.734865199230097, 19.734865199230097, 23.36239872007623, 28.19911008120441, 32.927536859620766, 36.00462375168179, 36.00462375168179, 40.12846160995713, 43.70185283944735, 47.103793479643855, 47.103793479643855, 50.05454835854108, 54.56640597153378, 57.80591973766255, 59.65578135898956, 59.65578135898956, 61.46954811941262, 62.00194731774577, 62.29972992020328, 65.0158682032249, 65.0158682032249, 66.69427923525818, 66.8657298245519, 66.09871403034315, 65.03391563367687, 65.03391563367687, 65.6926468451738, 67.14546499655745, 67.14546499655745, 67.63274561876067, 67.63274561876067, 68.50804599568124, 69.88867442525701, 69.69917640551132, 69.69917640551132, 69.98793529274285, 70.45716848449409, 72.16265066220534, 73.93129884649848, 73.93129884649848, 74.97804981271278, 75.66385216988768, 77.46859521508476, 77.46859521508476, 79.29138569073382, 79.5440497170614, 80.39227894830402, 80.93370186186316, 80.93370186186316, 81.24953189477266, 81.2224607490947, 81.55633821245615, 81.80900223878375, 81.80900223878375, 80.97882043799308, 80.7171326964395, 80.33813665694812, 80.33813665694812, 79.44478884957556, 79.11993510144009, 78.63265447923688, 78.63265447923688, 77.42347663895484, 75.76311303737351, 74.30127117076388, 73.62449252881498, 73.62449252881498, 73.57035023745905, 73.66961110494489, 73.80496683333469, 73.80496683333469, 72.96576131731804, 70.79104594785555, 69.99695900796884, 69.99695900796884, 70.03305386887278, 70.43912105404212, 70.98956768282724, 70.98956768282724, 71.28735028528476, 70.38497876268622, 70.42107362359016, 70.42107362359016, 71.20613684825089, 71.79267833793995, 71.93705778155571, 72.68602614531248, 72.68602614531248, 72.9296664564141]",74.38524993988315,1.8956635000067763,None
reward-effort-pgACC-TUS,R88533/RE002,A_7,1,2024-08-01_11h37.31.106,2024-08-01 11:38:50,None,None,5,,,3.3819305419921877,1,42,avoid,normal,reward,None,90,-60,-59,reject,1.0205917000130285,None,-59,-376,"null",None,None,None
reward-effort-pgACC-TUS,R88533/RE002,A_7,1,2024-08-01_11h37.31.106,2024-08-01 11:38:50,None,None,5,,,3.3819305419921877,1,43,avoid,normal,reward,None,95,-80,-86,reject,1.7229275999998208,None,-86,-462,"null",None,None,None
reward-effort-pgACC-TUS,R88533/RE002,A_7,1,2024-08-01_11h37.31.106,2024-08-01 11:38:50,None,None,5,,,3.3819305419921877,1,44,avoid,normal,reward,None,70,-20,-16,accept,1.255273799994029,success,0,-462,"[0.27973517200554776, 0.27973517200554776, 0.2887588872315332, 0.2887588872315332, 0.3158300329094894, 0.2977826024575186, 0.33387746336146024, 0.36094860903941645, 0.36094860903941645, 0.3429011785874457, 0.3789960394913873, 0.4872806222032122, 0.4872806222032122, 0.568494059237081, 0.5775177744630664, 0.658731211496935, 0.658731211496935, 0.7940869398867163, 0.9113952378245267, 0.9926086748583952, 0.9926086748583952, 1.1460118337001473, 1.3264861382198556, 1.5520790188694908, 1.5520790188694908, 1.6242687406773741, 1.6242687406773741, 1.858885336552995, 2.030335925846718, 2.030335925846718, 2.6619959916656963, 3.456082931552413, 5.125470248359714, 5.125470248359714, 7.597968220279716, 8.67179033217198, 10.50360452304702, 15.150817864429506, 15.150817864429506, 19.012967981151263, 23.903821633635356, 30.157256285243246, 30.157256285243246, 34.25402299784062, 37.78229565120092, 41.60835090701873, 41.60835090701873, 45.641951613034216, 48.737085935547206, 52.933113515630424, 55.95605811633554, 55.95605811633554, 60.621318888169995, 63.78864293249088, 66.9920618377157, 68.12904995618986, 68.12904995618986, 68.60730686316708, 70.71885622604768, 72.60481270827862, 72.60481270827862, 73.56132652223307, 73.89520398559453, 74.70733835593323, 74.70733835593323, 75.11340554110257, 75.09535811065061, 75.06828696497264, 75.06828696497264, 74.22005773373002, 75.24876126949235, 77.53176122166666, 77.53176122166666, 76.67450827519804, 77.15276518217527, 77.97392326773995, 77.97392326773995, 76.5752474077122, 75.28485613039629, 76.23234622912476, 75.68189960033965, 75.68189960033965, 75.4021644283341, 78.32584816155338, 79.53502600183542, 79.4899074257055, 79.4899074257055, 77.44152406940681, 76.3316070966106, 76.3316070966106, 74.91488380613089, 75.27583241517031, 75.76311303737351, 74.89683637567892, 74.89683637567892, 73.90422770082053, 73.57937395268505, 73.57937395268505, 73.54327909178112, 72.95673760209206, 73.25452020454958, 73.80496683333469, 73.80496683333469, 73.1191644761598, 72.81235815847629, 72.85747673460622, 72.85747673460622, 71.60318031819423, 71.23320799392884, 72.50555184079278, 72.50555184079278, 72.4875044103408, 72.18972180788329, 71.6212277486462, 71.6212277486462]",74.30659664204481,1.9024917000060668,None
reward-effort-pgACC-TUS,R88533/RE002,A_7,1,2024-08-01_11h37.31.106,2024-08-01 11:38:50,None,None,5,,,3.3819305419921877,1,45,avoid,normal,reward,0.0,80,-80,-93,accept,1.1947166999889305,success,0,-462,"[0.6767786419489058, 0.6497074962709497, 0.6677549267229205, 0.6677549267229205, 0.6767786419489058, 0.7038497876268621, 0.7038497876268621, 0.7218972180788329, 0.857252946468614, 1.3716047143497827, 1.3716047143497827, 2.63492484598774, 3.7719129644619023, 7.832584816155337, 10.891624277764391, 17.776718995191263, 23.199971846008495, 23.199971846008495, 28.623224696825726, 33.93819296493113, 35.52636684470457, 36.42873836730311, 37.313062459449675, 37.313062459449675, 37.80936679687888, 38.80197547173727, 39.821655292273626, 40.57062365603041, 43.31383308472997, 47.22110177758166, 49.55824402111188, 53.83548503822897, 57.219378247973495, 57.219378247973495, 60.44084458365029, 62.7870105424065, 65.93628715627541, 67.61469818830868, 68.77875745246081, 68.77875745246081, 70.54740563675395, 71.81974948361788, 72.55067041692271, 73.81399054856067, 74.36443717734578, 75.17657154768446, 75.17657154768446, 76.64743712952009, 77.3873817780509, 79.2372433993779, 80.410326378756, 80.410326378756, 80.91565443141118, 81.01491529889702, 81.49317220587426, 82.1428797021452, 82.6391840395744, 83.3249863967493, 84.46197451522346, 85.58993891847163, 85.92381638183309, 85.92381638183309, 85.83357922957323, 85.95991124273704, 85.71627093163544, 85.91479266660711, 86.14038554725674, 86.16745669293469, 85.95088752751104, 84.89511284607076, 84.89511284607076, 84.16419191276594, 83.46936584036506, 82.53089945686257, 82.52187574163659, 82.52187574163659, 82.38652001324681, 81.89021567581761, 81.71876508652389, 81.42098248406637, 81.42098248406637, 80.64494297463163, 80.1666860676544, 79.9230457565528, 79.45381256480155, 78.60558333355893, 79.39064655821966, 79.39064655821966, 79.6072157236433, 79.69745287590315, 80.01328290881264, 80.410326378756, 80.64494297463163, 80.55470582237177, 80.29301808081819, 79.37259912776769, 79.37259912776769, 79.37259912776769, 79.96816433268272, 80.13961492197645, 80.7261564116655, 80.58177696804972, 80.55470582237177]",81.82012074504432,1.892906299995957,None
reward-effort-pgACC-TUS,R88533/RE002,A_7,1,2024-08-01_11h37.31.106,2024-08-01 11:38:50,None,None,5,,,3.3819305419921877,1,46,avoid,normal,reward,None,90,-80,-76,accept,1.8456892000103835,success,0,-462,"[0.460209476525256, 0.47825690697722684, 0.460209476525256, 0.4963043374291976, 0.5323991983331393, 0.7399446485308038, 1.4979367275135784, 2.8605177266373754, 2.8605177266373754, 4.430644175958838, 8.148414849064826, 13.58971513033403, 19.337821729286738, 28.803699001345436, 28.803699001345436, 36.085837188715665, 45.00126783198925, 50.0455246433151, 56.8494059237081, 56.8494059237081, 60.77472204701175, 62.32680106588124, 64.97074962709497, 64.97074962709497, 67.51543732082284, 69.25701435943805, 71.54001431161234, 72.98380874777001, 74.08470200534023, 75.86237390485935, 75.86237390485935, 78.1904924331636, 79.29138569073382, 80.61787182895367, 80.61787182895367, 81.36684019271046, 81.94435796717352, 82.74746862228622, 83.25279667494141, 84.29954764115571, 84.29954764115571, 85.77041322299134, 86.75399818262375, 86.9705673480474, 87.60222741386637, 87.60222741386637, 88.07146060561763, 88.1977926187814, 88.60385980395075, 89.54232618745324, 89.4430653199674, 89.4430653199674, 89.42501788951543, 88.77531039324448, 88.52264636691689, 88.52264636691689, 88.26095862536332, 88.26095862536332, 88.68507324098462, 88.96480841299017, 89.01895070434608, 89.695729346295, 89.695729346295, 89.65963448539105, 89.58744476358316, 89.45208903519338, 89.695729346295, 89.9393696573966, 89.9393696573966, 90.05667795533441, 90.97709690838492, 91.06733406064478, 91.58168582852595, 91.55461468284798, 91.55461468284798, 91.7892312787236, 91.81630242440157, 92.25846447047485, 93.20595456920331, 93.56690317824274, 93.9549229329601, 94.30684782677355, 94.30684782677355, 94.77608101852478, 94.5865829987791, 94.5775592835531, 94.54146442264916, 94.54146442264916, 94.64974900536099, 94.45122727038931, 94.45122727038931, 93.69323519140653, 92.79086366880799, 92.48405735112448, 91.22073721948652, 91.22073721948652]",90.80154463035211,1.7700717999978224,None
reward-effort-pgACC-TUS,R88533/RE002,A_7,1,2024-08-01_11h37.31.106,2024-08-01 11:38:50,None,None,5,,,3.3819305419921877,1,47,avoid,normal,reward,None,80,-100,-103,accept,1.0363771000120323,failure,-103,-565,"[0.460209476525256, 0.460209476525256, 0.46923319175124145, 0.46923319175124145, 0.46923319175124145, 0.4872806222032122, 0.4872806222032122, 0.4872806222032122, 0.46923319175124145, 0.4872806222032122, 0.4872806222032122, 0.5323991983331393, 0.505328052655183, 0.5323991983331393, 0.6136126353670079, 0.7940869398867163, 1.2182015555080306, 2.1566679390105135, 2.1566679390105135, 6.56926468451738, 10.7021262580187, 28.000588346232735, 34.56985303075012, 42.23098725761173, 48.47539819399363, 52.3285245954894, 55.59510950729612, 60.45889201410226, 64.44737414398782, 67.1093701356535, 69.32018036601994, 71.8107257683919, 74.30127117076388, 75.81725532872943, 78.72289163149672, 80.22985207423629, 80.9697967227671, 81.68267022561994, 82.15190341737119, 82.06166626511133, 82.80161091364214, 83.55057927739892, 84.58830652838725, 85.53579662711573, 84.84097055471484, 84.84097055471484, 84.01981246915017, 83.72202986669265, 83.7491010123706, 83.7491010123706, 82.79258719841616, 82.73844490706024, 82.73844490706024, 83.88445674076038, 83.78519587327456, 83.52350813172097, 83.72202986669265, 83.29791525107134, 82.90087178112799, 82.53992317208856, 82.44066230460272, 82.13385598691922, 82.3323777218909, 82.35944886756886, 81.53829078200418, 81.4661010601963, 81.28562675567659, 81.28562675567659, 80.82541727915134, 80.60884811372769, 79.95011690223075, 78.23561100929352, 77.77540153276826, 78.29877701587542, 77.90173354593206, 77.21593118875717, 77.45054778463279, 75.74506560692154, 75.4021644283341, 75.14047668678052, 73.67863482017088, 71.4497771593525, 70.88128310011541, 69.75331869686723, 69.73527126641527, 70.38497876268622, 71.65732260955015, 73.58839766791104, 75.60068616330578, 77.36031063237293, 78.4972987508471, 78.4972987508471, 79.7335477368071, 80.29301808081819, 80.86151214005528, 80.82541727915134, 81.78193109310578, 82.17897456304914, 83.24377295971543, 83.24377295971543, 84.58830652838725, 86.05917211022287, 86.89837762623952, 87.05178078508126, 87.49394283115454, 87.66539342044828, 87.91805744677586, 88.04438945993967, 87.92708116200185, 87.66539342044828, 87.90001001632389, 87.71953571180418, 87.61125112909237, 87.62929855954434, 87.05178078508126, 86.88935391101353, 86.98861477849937, 86.98861477849937, 86.79009304352769, 85.91479266660711, 86.1042906863528, 85.43653575962989, 84.34466621728565, 83.60472156875484, 82.7023500461563, 81.96240539762549, 81.33074533180653, 80.82541727915134, 79.99523547836067, 75.57361501762783, 74.12079686624418, 73.59742138313702, 72.68602614531248, 72.07241350994549, 71.64829889432417, 68.23733453890168, 64.15861525675628, 60.67546117952591, 56.41626759286079, 51.281773629275094, 47.84373812817465, 47.203054347129694, 46.52627570518078, 45.25393185831684, 41.34666316546516, 38.88318890877114, 35.923410314647924, 28.32544209436821, 21.530584529201192, 15.980999665220164, 10.485557092595048, 8.328889153584534, 6.560240969291395, 6.054912916636211, 6.081984062314167, 6.109055207992124, 6.370742949545701, 6.930213293556796, 7.155806174206432, 7.841608531381322, 8.265723147002637, 8.283770577454607, 8.265723147002637, 8.283770577454607, 8.599600610364098, 10.043395046521763, 12.136896978950379, 13.80628429575768, 16.035141956576076, 19.897292073297834, 32.79218113123098, 36.62726010227479, 40.823287682358, 45.01029154721524, 49.964311206281224, 54.91833086534722, 58.89778928000678, 61.68611728483627, 63.896927515202705, 67.71395905579453, 68.71559144587891, 70.5835004976579, 72.00924750336358, 73.12818819138577, 74.36443717734578, 74.98707352793878, 75.97968220279718, 76.22332251389878, 76.76474542745791, 77.27909719533906, 79.30943312118578, 80.63591925940564, 81.86314453013965, 81.86314453013965, 82.4496860198287, 85.56286777279367, 86.68180846081587, 87.37663453321674, 88.05341317516564, 89.39794674383748, 90.07472538578638, 90.39055541869587, 90.40860284914784, 89.7498716376509, 89.7498716376509, 89.75889535287689, 89.67768191584302, 89.67768191584302, 89.32575702202959, 88.54069379736886, 88.37826692330111, 87.98122345335776, 87.76465428793412, 86.99763849372536, 84.8590179851668, 84.17321562799192, 84.29052392592973, 83.11744094655162, 82.36847258279484, 82.35944886756886, 82.68430261570433, 82.84672948977206, 83.4422946946871, 83.3159626815233, 84.5612353827093, 85.88772152092915, 86.0411246797709, 86.23964641474258]",0,5.0074004999914905,None
reward-effort-pgACC-TUS,R88533/RE002,A_7,1,2024-08-01_11h37.31.106,2024-08-01 11:38:50,None,None,5,,,3.3819305419921877,1,48,avoid,normal,reward,None,90,-100,-99,accept,4.782260399995721,success,0,-565,"[3.095134322512996, 3.2485374813547483, 3.4019406401965004, 3.456082931552413, 3.537296368586281, 4.376501884602925, 5.1796125397156265, 7.191901035110374, 8.211580855646725, 10.377272509883223, 14.934248699005856, 14.934248699005856, 16.82922889646279, 21.133541059257833, 24.84228801713784, 28.19911008120441, 33.75771866041142, 36.57311781091887, 41.41885288727304, 46.61651285744064, 49.648481173371735, 54.71078541514955, 58.798528412520945, 61.722212145740215, 62.65165481401671, 64.67296702463744, 68.09295509528592, 70.9444491066973, 71.8107257683919, 72.87552416505818, 74.73440950161118, 76.80084028836184, 77.95587583728796, 80.32008922649615, 81.66462279516797, 82.37749629802083, 83.97469389302024, 85.58091520324564, 86.96154363282142, 87.3405396723128, 88.91066612163426, 88.67604952575864, 89.13625900228391, 89.02797441957208, 89.91229851171865, 90.33641312733995, 90.25519969030609, 89.8220613594588, 91.47340124581412, 93.07059884081353, 93.73835376753645, 94.23465810496565, 94.10832609180187, 94.8302233098807, 95.53407309750756, 96.42742090488011, 96.81544065959748, 97.07712840115106, 97.19443669908887, 97.32979242747865, 97.15834183818492, 97.3658872883826, 97.33881614270463, 97.13127069250697, 96.70715607688565, 96.46351576578405, 96.87860666617938, 96.57180034849587, 96.47253948101003, 95.6243102497674, 95.61528653454143, 95.3806699386658, 95.18214820369413, 94.80315216420273, 94.20758695928771, 94.33391897245149, 94.04516008521996, 93.81956720457033, 93.55787946301675, 92.92621939719777, 92.62843679474025, 92.58331821861032, 92.63746050996625, 93.50373717166084]",93.63256510605734,1.84109799998987,None
reward-effort-pgACC-TUS,R88533/RE002,A_7,1,2024-08-01_11h37.31.106,2024-08-01 11:38:50,None,None,5,,,3.3819305419921877,1,49,avoid,normal,reward,None,50,-20,-17,reject,1.2082678000006126,None,-17,-582,"null",None,None,None
reward-effort-pgACC-TUS,R88533/RE002,A_7,1,2024-08-01_11h37.31.106,2024-08-01 11:38:50,None,None,5,,,3.3819305419921877,1,50,avoid,normal,reward,0.002,80,-40,-44,reject,2.913861099994392,None,-44,-626,"null",None,None,None
reward-effort-pgACC-TUS,R88533/RE002,A_7,1,2024-08-01_11h37.31.106,2024-08-01 11:38:50,None,None,5,,,3.3819305419921877,2,51,avoid,shifted,reward,None,75,-60,-51,accept,1.9004003000009106,success,0,-626,"[2.1295967933325572, 2.147644223784528, 2.174715369462484, 2.174715369462484, 2.2017865151404403, 2.2017865151404403, 2.2829999521743094, 2.4183556805640904, 2.4183556805640904, 2.625901130761755, 2.9146600179932878, 3.3026797727106607, 4.232122440987158, 4.232122440987158, 5.143517678811685, 6.821928710844971, 8.500339742878257, 8.500339742878257, 10.32313021852731, 14.031877176407315, 16.802157750784836, 16.802157750784836, 20.799663595896376, 23.903821633635356, 28.334465809594196, 30.861106072870108, 30.861106072870108, 33.450912342727925, 34.5157107393942, 35.46320083812267, 35.46320083812267, 36.74456840021259, 38.27859998863012, 40.0833430338272, 42.38439041645348, 42.38439041645348, 45.61488046735626, 48.331018750377865, 51.68784081444444, 53.84450875345495, 53.84450875345495, 56.02824783814342, 58.988026432266636, 61.144694371277154, 61.144694371277154, 62.66970224446868, 66.45063892415656, 69.78038984254519, 69.78038984254519, 69.64503411415541, 70.37595504746022, 73.01087989344796, 73.01087989344796, 72.95673760209206, 72.45140954943687, 73.66058738971891, 73.66058738971891, 74.01251228353235, 73.53425537655512, 73.78691940288272, 73.78691940288272, 74.13884429669613, 74.20201030327804, 74.90586009090491, 75.72701817646957, 75.72701817646957, 78.05513670477382, 79.80573745861498, 80.52763467669382, 81.14124731206083, 81.14124731206083, 82.43163858937673, 84.58830652838725, 86.80814047397966, 86.80814047397966, 87.69246456612623, 88.17974518832943, 89.83108507468476, 90.4988400014077, 90.4988400014077, 89.55134990267922, 88.86554754550433, 89.64158705493908, 89.84010878991076, 89.84010878991076, 89.16333014796184, 88.93773726731223, 88.54971751259485, 88.54971751259485, 85.32825117691806, 83.04525122474374, 82.09776112601529, 82.09776112601529, 82.04361883465936, 83.15353580745557, 83.72202986669265, 83.62276899920681, 83.62276899920681, 82.06166626511133, 81.62852793426404, 81.98045282807746, 81.93533425194754, 81.93533425194754, 82.57601803299251, 83.89348045598636, 83.09036980087367, 83.09036980087367, 82.46773345028068, 84.89511284607076, 85.03046857446054, 85.03046857446054, 83.80324330372652, 84.34466621728565, 85.73431836208741, 85.73431836208741, 86.23062269951659, 86.09526697112682, 86.93447248714345, 87.31346852663484, 87.31346852663484, 87.1600653677931, 86.88935391101353, 86.49231044107017, 86.49231044107017, 86.49231044107017, 86.77204561307572, 85.11168201149441, 84.04688361482813]",85.314789568958,2.1322635999968043,None
reward-effort-pgACC-TUS,R88533/RE002,A_7,1,2024-08-01_11h37.31.106,2024-08-01 11:38:50,None,None,5,,,3.3819305419921877,2,52,avoid,shifted,reward,None,85,-40,-38,reject,3.658216399999219,None,-38,-664,"null",None,None,None
reward-effort-pgACC-TUS,R88533/RE002,A_7,1,2024-08-01_11h37.31.106,2024-08-01 11:38:50,None,None,5,,,3.3819305419921877,2,53,avoid,shifted,reward,None,100,-40,-35,reject,1.2396346000023186,None,-35,-699,"null",None,None,None
reward-effort-pgACC-TUS,R88533/RE002,A_7,1,2024-08-01_11h37.31.106,2024-08-01 11:38:50,None,None,5,,,3.3819305419921877,2,54,avoid,shifted,reward,None,90,-80,-76,reject,1.1832714000047417,None,-76,-775,"null",None,None,None
reward-effort-pgACC-TUS,R88533/RE002,A_7,1,2024-08-01_11h37.31.106,2024-08-01 11:38:50,None,None,5,,,3.3819305419921877,2,55,avoid,shifted,reward,0.0,80,-40,-38,reject,2.3782461999944644,None,-38,-813,"null",None,None,None
reward-effort-pgACC-TUS,R88533/RE002,A_7,1,2024-08-01_11h37.31.106,2024-08-01 11:38:50,None,None,5,,,3.3819305419921877,2,56,avoid,shifted,reward,None,60,-100,-100,accept,0.8857992999983253,success,0,-813,"[0.7940869398867163, 0.7760395094347454, 0.76701579420876, 0.7579920789827747, 0.7489683637567892, 0.7760395094347454, 0.7760395094347454, 0.7760395094347454, 0.7850632246607309, 0.76701579420876, 0.8121343703386871, 0.8121343703386871, 0.8392055160166433, 0.8301818007906578, 0.8753003769205849, 1.028703535762337, 1.2182015555080306, 2.021312210620732, 3.5824149447162084, 5.928580903472415, 8.491316027652273, 10.566770529628917, 14.095043182989214, 18.19180989558659, 23.687252468211707, 28.78565157089346, 33.89307438880121, 36.71749725453464, 40.73305053009815, 43.81013742215917, 45.5878093216783, 47.77154840636677, 48.9265839552929, 49.75676575608356, 51.92245741032006, 53.34820441602576, 53.86255618390692, 53.86255618390692, 55.78460752704182, 58.13979720102401, 59.430188478339915, 59.67382878944153, 60.738627186107806, 62.77798682718051, 65.67459941472183, 68.13807367141584, 69.69917640551132, 72.16265066220534, 73.1191644761598, 73.66058738971891, 74.56295891231746, 75.23973755426636, 77.70321181096038, 78.45218017471717, 76.3316070966106, 74.68026721025527, 73.69668225062286, 72.97478503254402, 71.24223170915482, 71.24223170915482, 68.17416853231978, 67.84931478418432, 68.08393138005994, 68.18319224754578, 69.39237008782781, 70.8271408087595, 72.98380874777001, 73.57937395268505, 73.7418008267528, 74.12982058147016, 75.35704585220418, 75.82627904395541, 75.67287588511367, 76.50305768590432, 76.53012883158227, 74.87878894522694, 73.95836999217643, 73.07404590002986, 72.85747673460622, 71.93705778155571, 71.17906570257293, 70.6376427890138, 70.13231473635862, 69.8345321339011, 70.49326334539803, 71.5039194507084, 72.36117239717701, 72.84845301938023, 73.13721190661177, 73.32670992635745, 73.33573364158345]",72.72251334166106,1.9881486000085715,None
reward-effort-pgACC-TUS,R88533/RE002,A_7,1,2024-08-01_11h37.31.106,2024-08-01 11:38:50,None,None,5,,,3.3819305419921877,2,57,avoid,shifted,reward,None,90,-20,-22,reject,5.658861999996589,None,-22,-835,"null",None,None,None
reward-effort-pgACC-TUS,R88533/RE002,A_7,1,2024-08-01_11h37.31.106,2024-08-01 11:38:50,None,None,5,,,3.3819305419921877,2,58,avoid,shifted,reward,None,75,-20,-21,reject,2.2105256999930134,None,-21,-856,"null",None,None,None
reward-effort-pgACC-TUS,R88533/RE002,A_7,1,2024-08-01_11h37.31.106,2024-08-01 11:38:50,None,None,5,,,3.3819305419921877,2,59,avoid,shifted,reward,None,50,-60,-59,accept,1.0875495000072988,success,0,-856,"[0.7128735028528476, 0.7128735028528476, 0.7218972180788329, 0.7218972180788329, 0.7309209333048183, 0.7038497876268621, 0.7309209333048183, 0.7309209333048183, 0.7399446485308038, 0.7489683637567892, 0.7399446485308038, 0.7760395094347454, 0.7760395094347454, 0.7579920789827747, 0.7760395094347454, 0.857252946468614, 0.857252946468614, 0.9294426682764975, 1.028703535762337, 1.7415770386151843, 1.9671699192648198, 1.9671699192648198, 2.625901130761755, 3.28463234225869, 4.069695566919421, 5.459347711721174, 5.459347711721174, 7.805513670477381, 10.124608483555631, 13.544596554204102, 16.350971989485565, 16.350971989485565, 20.204098390981336, 23.867726772731416, 27.88328004829492, 33.25239060775624, 36.00462375168179, 39.06366321329085, 39.06366321329085, 41.77980149631246, 45.479524738966475, 47.31133892984151, 48.26785274379597, 49.36874600136619, 49.36874600136619, 51.93148112554604, 52.67142577407685, 52.17512143664765, 52.62630719794692, 53.68208187938721, 53.68208187938721, 54.25959965385027, 54.20545736249437, 54.63859569334167, 55.88386839452766, 55.88386839452766, 57.174259671843565, 59.41214104788796, 60.666437464299925, 61.532714125994524, 63.202101442801826, 67.56055589695278, 71.55806174206431, 73.96739370740242, 74.77050436251513, 74.77050436251513, 77.04448059946345, 78.50632246607309, 75.48337786536797, 74.22005773373002, 74.22005773373002, 71.61220403342023, 71.61220403342023, 69.21189578330811, 67.46129502946694, 66.00847687808329, 64.87148875960914, 63.68938206500504, 63.69840578023103, 64.73613303121934, 65.6385045538179, 66.82061124842198, 67.90345707554022, 68.02978908870402, 68.09295509528592, 68.32757169116154, 69.85257956435306, 69.85257956435306, 70.19548074294052, 69.55479696189555, 69.8345321339011, 69.8345321339011, 69.68112897505935, 68.4178088434214, 66.46868635460854, 63.74352435636095, 63.74352435636095, 62.083160754779634, 60.90105406017554, 60.693508609977876, 60.693508609977876, 60.68448489475189, 61.01836235811335, 61.58685641735043, 61.965852456841816, 61.965852456841816, 62.63360738356474, 64.0232595283665, 64.96172591186898, 64.96172591186898, 65.55729111678401, 67.9846705125741, 69.90672185570898, 69.90672185570898, 69.79843727299716]",67.19198380436039,2.127943999992567,None
reward-effort-pgACC-TUS,R88533/RE002,A_7,1,2024-08-01_11h37.31.106,2024-08-01 11:38:50,None,None,5,,,3.3819305419921877,2,60,avoid,shifted,reward,0.002,90,-100,-99,accept,2.41446200000064,success,0,-856,"[0.7218972180788329, 0.7399446485308038, 0.7399446485308038, 0.857252946468614, 1.1460118337001473, 1.2813675620899285, 2.030335925846718, 3.38389320974453, 5.9556520491503715, 8.175485994742782, 13.300956243102496, 19.012967981151263, 27.504284008803538, 34.23597556738866, 39.758489285691724, 47.21207806235567, 51.850267688512176, 58.654148968905176, 61.812449298000075, 61.812449298000075, 65.89116858014548, 69.87965071003103, 71.69341747045411, 74.0395834292103, 76.8820537253957, 79.81476117384096, 80.69006155076156, 82.03459511943338, 83.9385990321163, 86.78106932830171, 88.3963143537531, 89.45208903519338, 89.48818389609733, 90.17398625327222, 91.63582811988185, 92.49308106635047, 93.14278856262142, 94.3970849790334, 95.5070019518296, 96.12963830242259, 96.87860666617938, 96.91470152708332, 96.29206517649033, 96.69813236165967, 96.63496635507778, 96.86055923572741, 96.88763038140536, 96.98689124889121, 97.122246977281, 96.74325093778961, 96.11159087197062, 95.15507705801618, 95.17312448846815, 96.32816003739427, 96.44546833533208, 95.85892684564303, 96.37327861352419, 96.77032208346755, 97.07712840115106, 97.43807701019047, 97.77195447355194, 98.43970940027485, 99.12551175744974, 99.20672519448361, 99.0262508899639, 99.44134179035925, 99.73912439281676, 99.84740897552858, 99.7120532471388, 99.73010067759077, 99.73010067759077, 99.56767380352304, 99.29696234674347, 99.14355918790172, 99.20672519448361, 99.45036550558522, 98.96308488338201, 98.7194445722804, 98.70139714182842, 98.71042085705442, 98.43970940027485, 98.25923509575514]",97.61207777987416,1.8059464000107255,None
