expName,curec_ID,trial_schedule,session_nr,date,start_time,end_time,duration,participant,age,gender,max_strength,block_number,trial_count,block_action_type,block_global_effort_state,block_attention_focus,trial_rating,trial_rating_time,trial_rating_random_start_pos,trial_effort,trial_outcome_level,trial_actual_outcome,response,response_time,result,points,cumulative_points,effort_trace,effort_expended,effort_response_time,final_bonus_payment
reward-effort-pgACC-TUS,R88533/RE002,B_5,1,2024-08-16_10h08.56.632,2024-08-16 10:11:52,None,None,7,,,2.658517456054687,1,1,avoid,normal,heart,None,None,None,80,-40,-40,accept,0.41647269999884884,success,0,0,"[1.4119381088983096, 1.5152506534518444, 1.5152506534518444, 1.584125683154201, 1.6530007128565578, 1.6530007128565578, 1.7218757425589142, 1.951459174900103, 2.123646749155994, 2.123646749155994, 2.307313495028945, 2.6402094719236686, 2.8927512474989756, 3.3060014257131156, 3.3060014257131156, 3.535584858054304, 3.879960006566087, 4.511314445504356, 4.511314445504356, 5.2689397722302775, 7.185961432279202, 8.80452463028458, 8.80452463028458, 10.239421082417008, 11.685796706166498, 11.685796706166498, 14.509672923963118, 17.379465828227975, 21.018363230835813, 23.601176844674185, 23.601176844674185, 26.734990696131405, 29.69661697333274, 33.082972600365274, 33.082972600365274, 35.45916112509657, 38.40930823068084, 41.93341391711809, 41.93341391711809, 43.620852144825825, 45.22793617121415, 47.317145405518964, 47.317145405518964, 48.95866694675846, 51.89733488072568, 55.82321157376, 55.82321157376, 59.990150870752565, 62.0219642469721, 66.57919537894468, 66.57919537894468, 68.96686307529303, 71.36600994325846, 71.36600994325846, 72.90421893994443, 74.04065693003331, 76.106907821104, 76.106907821104, 77.66807516102409, 79.53918013460478, 80.87076404218368, 80.87076404218368, 82.37453552401846, 84.18824463951384, 85.5313077187098, 85.5313077187098, 87.0580375437787, 88.97505920382763, 90.82320583417419, 90.82320583417419, 91.557872817666, 92.16626891337015, 92.63691494966957, 92.63691494966957, 92.92389424009608, 93.11904015758607, 93.41749861962963, 93.41749861962963, 93.18791518728844, 93.06164429950078, 93.10756098596902, 93.10756098596902, 93.08460264273491, 92.82058169554254, 92.55656074835017, 92.55656074835017, 92.17774808498721, 91.6726645338366, 90.53622654374772, 90.53622654374772, 89.36535103880765, 89.12428843484939, 88.41257979459172, 88.41257979459172, 87.51720440846108, 87.10395423024694, 86.81697493982045, 86.81697493982045, 86.18562050088218, 85.55426606194392, 85.63462026326333, 85.63462026326333, 85.63462026326333, 85.26728677151743, 85.02622416755918, 84.86551576492035, 84.86551576492035, 84.10789043819443, 83.01736913457378, 81.59395185405842, 81.59395185405842, 81.60543102567547, 82.69595232929612, 82.8107440454667, 82.8107440454667, 82.46636889695493]",87.19483100554865,1.9397475000005215,None
reward-effort-pgACC-TUS,R88533/RE002,B_5,1,2024-08-16_10h08.56.632,2024-08-16 10:11:52,None,None,7,,,2.658517456054687,1,2,avoid,normal,heart,None,None,None,90,-80,-81,accept,0.22752919999766164,success,0,0,"[0.14922923102177257, 0.241062603958248, 0.3788126633629611, 0.7576253267259222, 0.7576253267259222, 1.2512297062594777, 2.249917636943648, 2.9386679339672135, 2.9386679339672135, 4.006230894353741, 5.682189950444417, 8.930795518072236, 8.930795518072236, 10.778942148418803, 14.463756237494879, 20.731383940409327, 20.731383940409327, 25.862573653234893, 32.784514138321725, 36.228265623439555, 36.228265623439555, 41.15283024715805, 44.619540075509995, 47.753353926967215, 47.753353926967215, 51.782543164555086, 55.35256553746056, 59.11773382785606, 59.11773382785606, 61.74646412816266, 65.54606993340933, 69.25384236571954, 69.25384236571954, 72.68611467922031, 76.01507444816752, 77.66807516102409, 77.66807516102409, 79.32107587388066, 81.19218084746134, 82.4204522104867, 82.4204522104867, 84.3719113853868, 85.7264536361998, 86.94324582760811, 86.94324582760811, 87.19578760318342, 87.58607943816344, 87.55164192331226, 87.55164192331226, 87.93045458667522, 88.16003801901641, 89.17020512131764, 89.17020512131764, 90.29516393978946, 91.93668548102896, 92.43028986056252, 92.43028986056252, 92.76318583745724, 93.77335293975847, 94.63429081103793, 94.63429081103793, 96.01179140508506, 98.10100063938987, 99.71956383739526, 99.71956383739526, 100.45423082088705, 100.58050170867472, 99.83435555356584, 99.83435555356584, 99.32927200241524, 99.38666786050054, 99.27187614432992, 99.27187614432992, 97.9517714083681, 97.4122503423663, 96.63166667240627, 96.63166667240627, 95.58706205525385, 95.05902016086912, 94.86387424337912, 94.88683258661324, 94.88683258661324, 94.86387424337912, 94.63429081103793, 94.70316584074028, 94.70316584074028, 94.57689495295263, 94.22104063282379, 94.14068643150438, 94.14068643150438, 93.76187376814141, 93.73891542490729, 93.73891542490729, 93.67004039520494, 93.3945402763955, 92.95833175494724, 92.95833175494724, 92.52212323349899, 92.41881068894546, 92.16626891337015, 92.16626891337015, 91.95964382426308, 92.09739388366779, 92.28106062954075]",93.8398210463798,1.733751799998572,None
reward-effort-pgACC-TUS,R88533/RE002,B_5,1,2024-08-16_10h08.56.632,2024-08-16 10:11:52,None,None,7,,,2.658517456054687,1,3,avoid,normal,heart,None,None,None,95,-40,-36,reject,0.13167000000248663,None,-36,-36,"null",None,None,None
reward-effort-pgACC-TUS,R88533/RE002,B_5,1,2024-08-16_10h08.56.632,2024-08-16 10:11:52,None,None,7,,,2.658517456054687,1,4,avoid,normal,heart,None,None,None,95,-20,-16,reject,0.7651774000005389,None,-16,-52,"null",None,None,None
reward-effort-pgACC-TUS,R88533/RE002,B_5,1,2024-08-16_10h08.56.632,2024-08-16 10:11:52,None,None,7,,,2.658517456054687,1,5,avoid,normal,heart,0.6,2.5764763000006496,5,85,-40,-41,accept,0.32898539999951026,success,0,-52,"[-0.29845846204354515, -0.29845846204354515, -0.29845846204354515, -0.29845846204354515, -0.321416805277664, -0.25254177557530744, -0.21810426072412914, -0.21810426072412914, 0.03443751485117828, 0.29845846204354515, 0.80354201319416, 0.80354201319416, 2.066250891070697, 3.7307307755443144, 7.6910449834298165, 7.6910449834298165, 10.44604617152408, 16.449652927246163, 21.557884296837607, 21.557884296837607, 27.71072028358146, 34.13905638913474, 41.40537202273335, 41.40537202273335, 45.19349865636297, 48.9471877751414, 54.31944009192521, 54.31944009192521, 57.2351496826583, 60.87404708526615, 63.26171478161451, 63.26171478161451, 67.73859171226768, 69.86223846142367, 72.86978142509325, 72.86978142509325, 75.36076166599514, 77.47292924353408, 79.28663835902947, 79.28663835902947, 80.30828463294776, 81.5709935108243, 83.2928692533832, 83.2928692533832, 84.16528629627973, 84.22268215436503, 83.37322345470263, 83.37322345470263, 82.31713966593315, 82.53524392665729, 83.98161955040678, 85.3591201444539, 85.3591201444539, 87.3679751774393, 90.05410133583122, 92.14331057013602, 92.14331057013602, 92.18922725660427, 92.10887305528485, 92.78614418069135, 92.78614418069135, 93.60116536550258, 94.70316584074028, 94.76056169882557, 94.76056169882557, 94.45062406516497, 94.50801992325027, 94.11772808827024, 94.11772808827024, 93.53229033580021, 93.03868595626666, 92.8320608671596, 92.8320608671596, 92.53360240511604, 92.09739388366779, 90.75433080447183, 90.75433080447183, 88.82582997280586, 86.39224558998926, 84.13084878142854, 84.13084878142854, 83.13216085074437, 83.55689020057557, 84.41782807185504, 84.41782807185504, 85.11805754049566, 85.33616180121979, 85.48539103224157, 85.48539103224157, 85.96751624015806, 86.75957908173515, 86.75957908173515, 87.115433401864, 87.58607943816344, 87.40241269229048, 87.40241269229048, 87.29910014773695, 87.64347529624872, 87.70087115433402, 87.70087115433402, 87.59755860978049, 87.56312109492931]",88.24170950232467,1.688870499998302,None
reward-effort-pgACC-TUS,R88533/RE002,B_5,1,2024-08-16_10h08.56.632,2024-08-16 10:11:52,None,None,7,,,2.658517456054687,1,6,avoid,normal,heart,None,None,None,60,-20,-22,accept,0.05133120000027702,success,0,-52,"[-0.41325017821413945, -0.41325017821413945, -0.44768769306531775, -0.44768769306531775, -0.44768769306531775, -0.44768769306531775, -0.4362085214482583, -0.4362085214482583, -0.3673334917459017, -0.13775005940471313, 0.0, 0.0, 0.22958343234118855, 1.5382089966859633, 3.3863556270325312, 3.3863556270325312, 6.279106874531506, 9.516233270542266, 12.110526055997695, 12.110526055997695, 17.12692405265267, 20.66250891070697, 24.12921873905892, 24.12921873905892, 28.273199692817368, 32.979660055811735, 36.01016136271543, 36.01016136271543, 40.18857983132506, 43.09281025044109, 46.96129108539012, 49.71629227348438, 49.71629227348438, 54.2390858906058, 56.821899504444175, 59.037379626536634, 59.037379626536634, 60.8855262568832, 61.6775890984603, 62.45817276842035, 62.45817276842035, 65.43127821723874, 67.7615500555018, 69.86223846142367, 69.86223846142367, 71.8366559795579, 72.73203136568853, 73.50113586403153, 73.50113586403153, 74.48834462309863, 76.12986616433813, 76.85305397621288, 76.85305397621288, 77.56476261647055, 77.62215847455586, 77.19742912472466, 77.19742912472466, 76.80713728974463, 76.97932486400052, 76.7038247451911, 76.7038247451911, 76.0839494778699, 75.86584521714576, 75.7969701874434, 75.60182426995338, 75.60182426995338, 74.95899065939807, 74.55721965280098, 74.14396947458684, 74.14396947458684, 73.9603027287139, 74.06361527326743, 74.66053219735453, 74.66053219735453, 74.91307397292982, 75.15413657688808, 75.21153243497338, 75.21153243497338, 75.15413657688808, 74.89011562969571, 74.87863645807865, 74.87863645807865, 75.0623032039516, 74.95899065939807, 73.89142769901153, 73.89142769901153, 73.45521917756328, 73.45521917756328, 73.60444840858506, 73.3059899465415, 73.3059899465415, 72.9960523128809, 72.9386564547956, 72.68611467922031, 72.68611467922031, 72.05476024028204]",73.01355334501841,1.5845546999989892,None
reward-effort-pgACC-TUS,R88533/RE002,B_5,1,2024-08-16_10h08.56.632,2024-08-16 10:11:52,None,None,7,,,2.658517456054687,1,7,avoid,normal,heart,None,None,None,80,-60,-59,accept,0.058431800000107614,success,0,-52,"[-0.4706460362994365, -0.4706460362994365, -0.482125207916496, -0.482125207916496, -0.482125207916496, -0.4706460362994365, -0.2869792904264857, -0.2869792904264857, -0.022958343234118855, 0.3673334917459017, 1.0905213036206456, 1.0905213036206456, 2.9271887623501542, 6.141356815126794, 9.803212560968753, 9.803212560968753, 12.971463927277155, 19.767133524576337, 24.301406313314807, 24.301406313314807, 28.68644987103151, 34.41455650794417, 37.927183022764346, 42.58772669929048, 42.58772669929048, 45.8363322669183, 49.016062804843756, 54.58346103911757, 54.58346103911757, 57.8894624648307, 60.77073454071261, 65.21317395651461, 65.21317395651461, 68.45030035252537, 70.45915538551077, 72.50244793334734, 72.50244793334734, 73.67332343828741, 74.2702403623745, 75.0623032039516, 75.0623032039516, 76.78417894651052, 77.73695019072645, 78.35682545804765, 78.35682545804765, 78.59788806200591, 78.70120060655944, 78.86190900919827, 78.86190900919827, 79.59657599269008, 79.97538865605304, 81.21513919069545, 83.90126534908737, 83.90126534908737, 85.57722440517803, 85.82976618075334, 85.71497446458275, 85.71497446458275, 86.03639126986042, 86.8628916262887, 87.75826701241932, 87.75826701241932, 89.90487210480944, 90.96095589357891, 90.07705967906533, 90.07705967906533, 89.03245506191291, 87.99932961637758, 87.83862121373875, 87.83862121373875, 87.3679751774393, 86.6333081939475, 87.04655837216164, 87.04655837216164, 87.21874594641753, 86.52999564939397, 86.151182986031, 86.151182986031, 86.81697493982045, 87.9074962434411, 88.67660074178409, 88.67660074178409, 89.10133009161528, 89.62937198600002, 90.18037222361886, 90.18037222361886, 88.88322583089115, 88.19447553386759, 88.3896214513576, 88.55032985399643, 88.55032985399643, 87.81566287050462, 87.2876209761199, 87.2876209761199, 87.58607943816344, 87.52868358007814, 86.31189138866984, 86.23153718735043, 86.23153718735043, 86.30041221705278, 86.23153718735043, 86.61034985071339]",85.95302613828075,1.6859832000009192,None
reward-effort-pgACC-TUS,R88533/RE002,B_5,1,2024-08-16_10h08.56.632,2024-08-16 10:11:52,None,None,7,,,2.658517456054687,1,8,avoid,normal,heart,None,None,None,55,-20,-20,accept,0.376067500001227,success,0,-52,"[-0.6083960957041497, -0.6083960957041497, -0.5969169240870903, -0.5969169240870903, -0.6083960957041497, -0.5854377524700308, -0.5854377524700308, -0.5854377524700308, -0.562479409235912, -0.5854377524700308, -0.562479409235912, -0.562479409235912, -0.5854377524700308, -0.6083960957041497, -0.5510002376188525, -0.5510002376188525, 0.2869792904264857, 1.2971463927277154, 3.0419804785207485, 3.0419804785207485, 7.300753148449796, 10.44604617152408, 14.498193752346058, 14.498193752346058, 20.29517541896107, 24.0488645377395, 28.70940821426563, 33.41586857725999, 33.41586857725999, 35.96424467624718, 41.45128870920159, 43.54049794350641, 43.54049794350641, 46.662832623346574, 48.9471877751414, 48.9471877751414, 51.41520967280918, 54.204648375754616, 56.569357728868866, 56.569357728868866, 58.76187950772721, 60.66742199615908, 61.16102637569263, 61.42504732288499, 61.42504732288499, 61.88421418756738, 62.97473549118803, 65.93636176838935, 65.93636176838935, 66.2348202304329, 65.85600756706994, 65.85600756706994, 65.30500732945109, 65.8100908806017, 66.42996614792291, 66.48736200600821, 66.48736200600821, 66.55623703571057, 66.84321632613704, 66.84321632613704, 67.1416747881806, 67.13019561656354, 66.7169454383494, 66.7169454383494, 65.74121585089935, 64.62773620404458, 64.42111111493752, 64.42111111493752, 64.24892354068163, 63.19283975191215, 62.79106874531507, 62.79106874531507, 63.04361052089038, 63.08952720735862, 63.05508969250744, 63.05508969250744, 63.3765064977851, 64.09969430965985, 64.19152768259632, 64.19152768259632, 63.950465078638075, 64.42111111493752, 64.32927774200104, 64.32927774200104, 64.2259651974475, 65.12134058357813, 65.83304922383581, 65.83304922383581, 65.84452839545288, 65.27056981459991, 64.85731963638577, 64.24892354068163, 64.24892354068163, 63.51425655718982, 63.3765064977851, 63.30763146808275, 63.30763146808275, 64.58181951757635]",64.01425916352633,1.6230847999977414,None
reward-effort-pgACC-TUS,R88533/RE002,B_5,1,2024-08-16_10h08.56.632,2024-08-16 10:11:52,None,None,7,,,2.658517456054687,1,9,avoid,normal,heart,None,None,None,75,-20,-20,reject,0.08808780000254046,None,-20,-72,"null",None,None,None
reward-effort-pgACC-TUS,R88533/RE002,B_5,1,2024-08-16_10h08.56.632,2024-08-16 10:11:52,None,None,7,,,2.658517456054687,1,10,avoid,normal,heart,None,None,None,75,-80,-89,accept,0.05650640000021667,success,0,-72,"[-0.7346669834918034, -0.7346669834918034, -0.6887502970235657, -0.6772711254065062, -0.6772711254065062, -0.6543127821723874, -0.5854377524700308, -0.39029183498002057, -0.39029183498002057, -0.18366674587295084, 0.080354201319416, 0.080354201319416, 1.0905213036206456, 2.8927512474989756, 5.452606518103228, 8.86192048836988, 8.86192048836988, 11.169233983398824, 16.208590323287915, 20.52475885130226, 20.52475885130226, 26.436532234087863, 31.028200880911633, 35.29845272245774, 35.29845272245774, 41.279101134945705, 45.22793617121415, 48.64872931309785, 48.64872931309785, 52.29910588732275, 57.2925455407436, 60.66742199615908, 60.66742199615908, 63.25023560999745, 66.69398709511528, 69.34567573865601, 69.34567573865601, 71.1593848541514, 73.01901065611503, 74.8097614283763, 74.8097614283763, 76.17578285080636, 77.15151243825642, 77.42701255706585, 77.42701255706585, 77.59920013132174, 77.75990853396057, 77.71399184749232, 77.71399184749232, 77.9206169365994, 78.27647125672824, 78.57492971877178, 78.57492971877178, 80.13609705869187, 80.81336818409838, 79.76876356694596, 79.05705492668828, 79.05705492668828, 79.09149244153946, 80.27384711809657, 80.90520155703484, 80.90520155703484, 80.00982617090422, 79.06853409830535, 78.21907539864294, 78.21907539864294, 77.85174190689705, 77.09411658017112, 77.3810958705976, 77.3810958705976, 78.33386711481354, 79.28663835902947, 79.28663835902947, 79.28663835902947, 78.62084640524002, 78.57492971877178, 78.65528392009121, 79.33255504549771, 79.33255504549771, 79.75728439532891, 79.84911776826537, 79.90651362635069, 79.90651362635069, 79.64249267915832, 79.03409658345416, 78.85042983758122, 78.85042983758122, 78.83895066596415, 79.51622179137065, 79.80320108179714, 79.80320108179714, 80.65265978145955, 81.6513477121437, 81.32993090686604, 81.32993090686604, 80.14757623030893, 79.76876356694596, 79.68840936562654, 79.68840936562654]",78.8346224537151,1.642434499997762,None
reward-effort-pgACC-TUS,R88533/RE002,B_5,1,2024-08-16_10h08.56.632,2024-08-16 10:11:52,None,None,7,,,2.658517456054687,1,11,avoid,normal,heart,None,None,None,95,-60,-53,accept,0.7675099000007322,success,0,-72,"[-0.6083960957041497, -0.5854377524700308, -0.6083960957041497, -0.6083960957041497, -0.5739585808529714, -0.44768769306531775, -0.44768769306531775, -0.09183337293647542, 0.8150211848112194, 3.1338138514572242, 3.1338138514572242, 5.532960719422644, 10.044275164926999, 13.465068306810709, 13.465068306810709, 18.49294547508274, 23.71596856084478, 28.158407976646778, 28.158407976646778, 34.839285857775366, 40.13118397323976, 43.64381048805995, 47.512291323008974, 47.512291323008974, 50.003271563910864, 53.401106362560455, 55.82321157376, 55.82321157376, 57.568045659553036, 60.67890116777613, 62.45817276842035, 62.45817276842035, 66.51032034924232, 70.1377385802331, 73.08788568581738, 73.08788568581738, 74.45390710824745, 76.11838699272107, 77.33517918412936, 77.33517918412936, 78.42570048775002, 79.99834699928715, 83.7175986032144, 83.7175986032144, 85.40503683092214, 86.5759123358622, 87.9074962434411, 87.9074962434411, 89.89339293319239, 91.91372713779484, 92.65987329290371, 92.65987329290371, 93.71595708167317, 94.34731152061144, 94.87535341499618, 95.04754098925207, 95.04754098925207, 95.36895779452973, 97.32041696942983, 98.0091672664534, 98.0091672664534, 98.04360478130457, 98.78975093641344, 99.77695969548054, 99.77695969548054, 100.53458502220647, 100.63789756676, 101.02818940174004, 101.02818940174004, 101.33812703540063, 101.71693969876358, 101.84321058655124, 101.84321058655124, 101.83173141493418, 101.76285638523184, 101.64806466906124, 101.64806466906124, 101.6251063258271, 100.75268928293059, 100.23612656016292, 100.23612656016292, 99.12264691330816, 97.22858359649335, 95.62149957010504, 95.62149957010504, 95.46079116746621, 95.77072880112681, 96.66610418725745, 96.66610418725745, 97.85993803543163, 98.6864383918599, 98.34206324334812, 98.34206324334812, 97.18266691002512, 96.95308347768393, 96.99900016415216, 96.99900016415216, 97.44668785721748, 98.4338966162846, 99.44406371858582, 99.44406371858582, 99.0537718836058, 97.34337531266395, 96.55131247108685, 96.55131247108685, 96.6201875007892, 96.03474974831917, 96.20693732257507, 96.20693732257507, 98.67495922024284, 99.36370951726641]",97.99953957412944,1.838478400000895,None
reward-effort-pgACC-TUS,R88533/RE002,B_5,1,2024-08-16_10h08.56.632,2024-08-16 10:11:52,None,None,7,,,2.658517456054687,1,12,avoid,normal,heart,0.6,1.7772328999999445,9,75,-40,-46,accept,0.4509784000001673,success,0,-72,"[-0.49360437953355535, -0.49360437953355535, -0.5280418943847337, -0.5280418943847337, -0.482125207916496, -0.482125207916496, -0.49360437953355535, -0.49360437953355535, -0.4706460362994365, -0.44768769306531775, -0.44768769306531775, -0.44768769306531775, -0.03443751485117828, 1.6989173993247952, 3.592980716139601, 3.592980716139601, 6.302065217765626, 10.583796230928792, 15.03771481834785, 15.03771481834785, 21.408655065815832, 26.62019897996081, 31.648076148232846, 31.648076148232846, 37.0088492933996, 42.78287261678049, 48.02885404577665, 48.02885404577665, 52.29910588732275, 57.258108025892426, 62.148235134759744, 62.148235134759744, 66.82025798290293, 71.2397390554708, 74.4424279366304, 74.4424279366304, 77.31222084089525, 78.97670072536886, 80.81336818409838, 80.81336818409838, 83.69464025998029, 84.9343907946227, 86.44964144807456, 86.44964144807456, 87.19578760318342, 87.3679751774393, 86.10526629956277, 86.10526629956277, 85.40503683092214, 84.89995327977154, 84.76220322036681, 85.08362002564448, 85.08362002564448, 85.37059931607097, 85.57722440517803, 84.89995327977154, 84.89995327977154, 84.83107825006917, 84.80811990683506, 84.22268215436503, 84.22268215436503, 83.43061931278793, 82.83370238870084, 81.84649362963373, 81.84649362963373, 80.77893066924719, 79.78024273856302, 79.66545102239243, 79.66545102239243, 79.66545102239243, 79.41290924681712, 78.99965906860298, 78.89634652404945, 78.89634652404945, 78.43717965936708, 78.15020036894057, 78.13872119732352, 78.13872119732352, 78.13872119732352, 78.23055457026, 78.10428368247236, 78.10428368247236, 77.90913776498233, 77.87470025013116, 78.05836699600411, 78.05836699600411, 77.89765859336528, 77.81730439204586, 77.77138770557762, 77.77138770557762, 77.81730439204586, 77.82878356366292, 77.67955433264116, 77.67955433264116, 77.8058252204288]",81.02131055519429,1.5642776000022423,None
reward-effort-pgACC-TUS,R88533/RE002,B_5,1,2024-08-16_10h08.56.632,2024-08-16 10:11:52,None,None,7,,,2.658517456054687,1,13,avoid,normal,heart,None,None,None,50,-100,-97,accept,0.12381650000315858,success,0,-72,"[-0.7117086402576845, -0.6887502970235657, -0.6887502970235657, -0.6657919537894469, -0.6657919537894469, -0.6543127821723874, -0.29845846204354515, -0.29845846204354515, 0.30993763366060456, 1.388979765664191, 3.156772194691343, 3.156772194691343, 5.590356577507941, 10.744504633567626, 16.26598618137321, 16.26598618137321, 23.52082264335477, 30.775659105336327, 39.84420468281327, 39.84420468281327, 44.43587332963704, 48.671687656331976, 54.847481986309944, 58.3715876727472, 58.3715876727472, 61.71202661331149, 65.62642413472875, 65.62642413472875, 69.4604674548266, 74.87863645807865, 77.65659598940702, 78.67824226332532, 78.67824226332532, 79.12592995639064, 79.51622179137065, 78.86190900919827, 78.86190900919827, 77.96653362306763, 77.3810958705976, 76.83009563297875, 76.83009563297875, 76.24465788050873, 74.947511487781, 73.5355733788827, 72.823864738625, 72.823864738625, 72.45653124687911, 72.07771858351614, 71.42340580134376, 71.42340580134376, 71.03311396636374, 70.87240556372491, 70.94128059342727, 70.94128059342727, 70.71169716108608, 69.80484260333839, 69.50638414129484, 69.50638414129484, 68.81763384427127, 67.97965431622593, 67.22202898950002, 66.00523679809172, 66.00523679809172, 64.71956957698104, 63.904548392169836, 63.146923065443914, 63.146923065443914, 62.561485312973886, 62.0219642469721, 62.0219642469721, 61.539839039055586, 60.95440128658556, 60.805172055563794, 60.78221371232967, 60.78221371232967, 60.506713593520246, 60.27713016117906, 60.196775959859636, 60.196775959859636, 60.506713593520246, 60.59854696645672, 60.43783856381789, 60.43783856381789]",67.81616869464747,1.3740997999993851,None
reward-effort-pgACC-TUS,R88533/RE002,B_5,1,2024-08-16_10h08.56.632,2024-08-16 10:11:52,None,None,7,,,2.658517456054687,1,14,avoid,normal,heart,None,None,None,100,-20,-19,reject,0.9411379999983183,None,-19,-91,"null",None,None,None
reward-effort-pgACC-TUS,R88533/RE002,B_5,1,2024-08-16_10h08.56.632,2024-08-16 10:11:52,None,None,7,,,2.658517456054687,1,15,avoid,normal,heart,None,None,None,85,-40,-45,reject,0.30923259999690345,None,-45,-136,"null",None,None,None
reward-effort-pgACC-TUS,R88533/RE002,B_5,1,2024-08-16_10h08.56.632,2024-08-16 10:11:52,None,None,7,,,2.658517456054687,1,16,avoid,normal,heart,None,None,None,50,-20,-22,accept,1.1788548000004084,success,0,-136,"[32.81895165317291, 32.81895165317291, 22.372905481648825, 18.60773719125333, 18.60773719125333, 13.797964283705433, 10.974088065908813, 9.080024749094008, 9.080024749094008, 7.174482260662142, 6.325023560999744, 5.900294211168546, 5.900294211168546, 6.233190188063269, 7.6910449834298165, 9.780254217734633, 9.780254217734633, 11.731713392634735, 16.001965234180844, 19.790091867810453, 19.790091867810453, 25.988844541022544, 31.751388692786374, 36.090515564034845, 36.090515564034845, 43.54049794350641, 48.201041620032534, 54.59494021073464, 54.59494021073464, 58.440462702449544, 62.13675596314269, 66.39552863307173, 66.39552863307173, 69.72448840201896, 74.4998237947157, 76.93340817753229, 77.70251267587527, 77.70251267587527, 78.02392948115293, 78.23055457026, 79.0226174118371, 79.0226174118371, 78.98817989698593, 78.27647125672824, 78.03540865276999, 78.03540865276999, 78.03540865276999, 77.87470025013116, 77.87470025013116, 76.73826226004228, 75.22301160659043, 74.20136533267214, 73.50113586403153, 73.50113586403153, 73.01901065611503, 72.77794805215677, 72.77794805215677, 72.90421893994443, 72.69759385083736, 72.18103112806969, 72.18103112806969, 72.44505207526205, 71.97440603896261, 71.05607230959787, 71.05607230959787, 70.76909301917136, 70.75761384755431, 70.53950958683018, 70.29844698287194, 70.29844698287194, 70.0803427221478, 70.06886355053075, 69.72448840201896, 69.72448840201896, 69.10461313469776, 68.58805041193008, 68.6110087551642, 68.6110087551642, 68.77171715780304, 68.77171715780304, 68.6110087551642, 68.6110087551642, 67.8763417716724, 67.0842789300953, 66.64807040864704, 66.64807040864704, 66.13150768587937]",71.0378185448953,1.4426815000006172,None
reward-effort-pgACC-TUS,R88533/RE002,B_5,1,2024-08-16_10h08.56.632,2024-08-16 10:11:52,None,None,7,,,2.658517456054687,1,17,avoid,normal,heart,0.7,1.5263507999989088,9,80,-100,-81,reject,7.0495066000003135,None,-81,-217,"null",None,None,None
reward-effort-pgACC-TUS,R88533/RE002,B_5,1,2024-08-16_10h08.56.632,2024-08-16 10:11:52,None,None,7,,,2.658517456054687,1,18,avoid,normal,heart,None,None,None,75,-60,-56,accept,0.12988259999838192,success,0,-217,"[-0.6083960957041497, -0.6083960957041497, -0.6083960957041497, -0.5395210660017931, -0.4362085214482583, -0.4362085214482583, -0.18366674587295084, 0.10331254455353486, 0.80354201319416, 0.80354201319416, 1.9973758613683403, 3.535584858054304, 6.0265650989562, 6.0265650989562, 9.504754098925208, 12.753359666553024, 19.927841927215166, 19.927841927215166, 24.840927379316604, 33.438826920494115, 39.20137107225795, 39.20137107225795, 44.1374148675935, 49.24564623718495, 53.58477310843342, 53.58477310843342, 57.5221289730848, 60.73629702586143, 64.66217371889576, 64.66217371889576, 68.34698780797184, 71.61855171883377, 73.57001089373387, 73.57001089373387, 74.68349054058864, 76.95636652076641, 77.75990853396057, 77.75990853396057, 77.75990853396057, 77.08263740855405, 74.95899065939807, 74.95899065939807, 74.4424279366304, 74.39651125016215, 74.51130296633275, 74.51130296633275, 74.4653862798645, 74.86715728646159, 75.13117823365396, 76.26761622374283, 76.26761622374283, 76.94488734914935, 77.1285540950223, 77.48440841515114, 77.48440841515114, 78.81599232273004, 79.80320108179714, 79.20628415771004, 79.20628415771004, 78.3453462864306, 78.62084640524002, 80.62970143822542, 80.62970143822542, 80.98555575835427, 80.1820137451601, 79.52770096298771, 79.52770096298771, 79.49326344813655, 80.02130534252127, 79.49326344813655, 79.49326344813655, 79.11445078477358, 79.48178427651949, 79.69988853724361, 79.69988853724361, 79.5047426197536, 79.30959670226359, 79.37847173196594, 79.37847173196594, 79.43586759005125, 79.60805516430713, 79.76876356694596, 79.76876356694596, 79.41290924681712, 79.14888829962476, 78.88486735243238, 78.88486735243238, 78.25351291349412, 77.30074166927818, 76.65790805872285, 76.65790805872285, 76.65790805872285, 76.72678308842522]",77.76287090082945,1.5388511000019207,None
reward-effort-pgACC-TUS,R88533/RE002,B_5,1,2024-08-16_10h08.56.632,2024-08-16 10:11:52,None,None,7,,,2.658517456054687,1,19,avoid,normal,heart,None,None,None,70,-40,-34,accept,0.14081090000036056,success,0,-217,"[-0.8150211848112194, -0.8150211848112194, -0.7920628415771005, -0.7920628415771005, -0.80354201319416, -0.7920628415771005, -0.7691044983429817, -0.7691044983429817, -0.7231878118747439, -0.5739585808529714, -0.20662508910706973, -0.20662508910706973, 0.7691044983429817, 2.6861261583919065, 6.01508592733914, 6.01508592733914, 9.918004277139346, 14.08494357413192, 21.31682169287936, 21.31682169287936, 27.09084501626025, 34.678577455136534, 40.613309181156254, 40.613309181156254, 44.75729013491471, 49.865521504506155, 54.916357016012306, 54.916357016012306, 58.13052506878894, 59.86387998296492, 60.81665122718085, 60.81665122718085, 61.91865170241856, 63.893069220552775, 66.80877881128588, 66.80877881128588, 68.22071692018417, 69.67857171555073, 70.71169716108608, 70.71169716108608, 71.60707254721672, 71.92848935249437, 71.2167807122367, 71.50376000266317, 71.50376000266317, 72.44505207526205, 73.24859408845622, 74.43094876501333, 74.43094876501333, 75.4296366956975, 75.72809515774105, 75.86584521714576, 75.86584521714576, 76.48572048446697, 77.09411658017112, 76.37092876829638, 76.37092876829638, 76.19874119404048, 76.74974143165933, 76.96784569238346, 76.96784569238346, 76.74974143165933, 76.56607468578639, 76.26761622374283, 76.26761622374283, 75.98063693331636, 76.01507444816752, 76.65790805872285, 76.65790805872285, 76.95636652076641, 77.01376237885171, 77.25482498280995, 77.25482498280995, 77.73695019072645, 77.97801279468469, 77.8632210785141, 77.8632210785141, 77.84026273527999, 77.75990853396057, 77.88617942174821, 77.88617942174821, 78.3109087715794, 78.43717965936708, 78.3453462864306, 78.3453462864306, 78.13872119732352, 78.09280451085529, 78.13872119732352, 78.13872119732352, 78.12724202570647, 78.29942959996235, 78.39126297289883, 78.39126297289883, 78.62084640524002, 79.03409658345416, 79.35551338873182]",75.80604243597946,1.582057799998438,None
reward-effort-pgACC-TUS,R88533/RE002,B_5,1,2024-08-16_10h08.56.632,2024-08-16 10:11:52,None,None,7,,,2.658517456054687,1,20,avoid,normal,heart,None,None,None,85,-20,-22,reject,0.21921579999980167,None,-22,-239,"null",None,None,None
reward-effort-pgACC-TUS,R88533/RE002,B_5,1,2024-08-16_10h08.56.632,2024-08-16 10:11:52,None,None,7,,,2.658517456054687,1,21,avoid,normal,heart,None,None,None,70,-80,-81,accept,0.20299399999930756,success,0,-239,"[-0.964250415832992, -0.9527712442159325, -0.9527712442159325, -0.941292072598873, -0.9527712442159325, -0.9527712442159325, -0.9183337293647542, -0.8494586996623976, -0.8379795280453382, -0.8379795280453382, -0.6887502970235657, -0.482125207916496, -0.14922923102177257, -0.14922923102177257, 1.2167921914082993, 3.3174805973301744, 6.072481785424437, 9.493274927308146, 9.493274927308146, 12.25975528701947, 18.355195415678025, 22.763197316628847, 22.763197316628847, 27.527053537708507, 34.34568147824181, 38.27155817127613, 38.27155817127613, 42.98949770588756, 45.56083214810887, 49.18825037909965, 49.18825037909965, 53.18300210183633, 56.764503646358875, 60.66742199615908, 60.66742199615908, 62.34338105224976, 64.97211135255637, 66.62511206541292, 67.18759147464883, 67.18759147464883, 67.38273739213885, 67.25646650435118, 67.21054981788295, 67.21054981788295, 67.83042508520415, 69.44898828320954, 71.88257266602614, 71.88257266602614, 75.07378237556865, 76.77269977489345, 77.48440841515114, 77.48440841515114, 78.01245030953588, 78.52901303230355, 78.16167954055764, 78.16167954055764, 77.8058252204288, 78.03540865276999, 79.59657599269008, 79.59657599269008, 81.38732676495134, 81.86945197286785, 83.44209848440498, 83.44209848440498, 84.81959907845211, 85.56574523356097, 86.05934961309453, 86.05934961309453, 87.41389186390755, 88.01080878799463, 89.04393423352998, 89.69824701570236, 89.69824701570236, 90.08853885068238, 88.5044131675282, 87.39093352067343, 87.39093352067343, 86.0937871279457, 85.03770333917625, 84.71628653389858, 84.71628653389858, 83.91274452070442, 82.32861883755021, 81.8809311444849, 81.85797280125078, 81.85797280125078, 81.6283893689096, 81.49063930950487, 81.5709935108243, 81.5709935108243, 81.6283893689096, 81.89241031610196, 82.3056604943161, 82.3056604943161, 82.54672309827434, 82.87961907516907, 83.63724440189499, 83.63724440189499, 84.09641126657736]",80.31124699981666,1.645314999997936,None
reward-effort-pgACC-TUS,R88533/RE002,B_5,1,2024-08-16_10h08.56.632,2024-08-16 10:11:52,None,None,7,,,2.658517456054687,1,22,avoid,normal,heart,None,None,None,95,-80,-75,accept,0.24046720000114874,success,0,-239,"[-0.7117086402576845, -0.7117086402576845, -0.7117086402576845, -0.7002294686406252, -0.7117086402576845, -0.7117086402576845, -0.6657919537894469, -0.6313544389382686, -0.562479409235912, -0.35585432012884227, -0.35585432012884227, 0.883896214513576, 3.3633972837984123, 3.3633972837984123, 6.543127821723874, 10.078712679778178, 14.865527244091957, 14.865527244091957, 20.89209234304816, 25.575594362808406, 29.627741943630383, 29.627741943630383, 35.83797378845953, 41.94489308873515, 46.272540788366555, 52.89602281140985, 52.89602281140985, 58.97998376845134, 65.77565336575051, 71.60707254721672, 71.60707254721672, 77.26630415442702, 81.53655599597312, 85.19841174181508, 85.19841174181508, 87.64347529624872, 91.35124772855893, 92.7746650090743, 92.7746650090743, 93.9340613423973, 94.76056169882557, 95.82812465921211, 95.82812465921211, 97.79106300572927, 99.76548052386349, 100.17873070207763, 100.17873070207763, 100.10985567237528, 100.93635602880356, 101.67102301229536, 101.67102301229536, 101.42996040833711, 101.76285638523184, 102.03835650404125, 102.45160668225539, 102.45160668225539, 102.34829413770186, 102.02687733242419, 101.69398135552947, 101.69398135552947, 101.63658549744416, 101.78581472846595, 101.95800230272185, 101.95800230272185, 101.98096064595596, 102.17610656344598, 102.29089827961657, 102.29089827961657, 102.01539816080714, 101.83173141493418, 101.6251063258271, 101.6251063258271, 101.08558525982532, 100.85600182748414, 100.31648076148234, 99.98358478458762, 99.98358478458762, 100.02950147105585, 99.63920963607583, 99.63920963607583, 98.98489685390345, 98.3765007581993, 96.98752099253511, 96.98752099253511, 95.05902016086912, 93.88814465592907, 93.38306110477845, 93.1993943589055, 93.1993943589055, 93.11904015758607, 92.76318583745724, 92.2925398011578, 92.2925398011578, 91.12166429621774, 90.40995565596005, 91.23645601238833, 91.23645601238833, 92.09739388366779]",98.20634981116581,1.6278999999994994,None
reward-effort-pgACC-TUS,R88533/RE002,B_5,1,2024-08-16_10h08.56.632,2024-08-16 10:11:52,None,None,7,,,2.658517456054687,1,23,avoid,normal,heart,0.5,1.9001573999994434,9,55,-80,-88,accept,0.13719310000305995,success,0,-239,"[-0.8150211848112194, -0.8265003564282789, -0.8379795280453382, -0.8379795280453382, -0.80354201319416, -0.6887502970235657, -0.4706460362994365, -0.4706460362994365, -0.35585432012884227, -0.080354201319416, 1.2512297062594777, 1.2512297062594777, 4.21285598346081, 9.22925398011578, 12.925547240808916, 12.925547240808916, 20.478842164834017, 26.023282055873725, 32.635284907299955, 32.635284907299955, 36.2167864518225, 40.53295497983684, 43.471622913804055, 43.471622913804055, 45.813373923684175, 48.83239605897081, 52.322064230556876, 52.322064230556876, 56.2479409235912, 60.40340104896671, 62.33190188063269, 64.76548626344929, 64.76548626344929, 65.32796567268521, 65.95932011162347, 66.76286212481763, 66.76286212481763, 66.93504969907352, 67.13019561656354, 67.53196662316061, 67.53196662316061, 68.11740437563064, 69.26532153733659, 69.67857171555073, 69.67857171555073, 69.13905064954893, 68.54213372546184, 68.00261265946006, 68.00261265946006, 67.8189459135871, 67.57788330962885, 67.23350816111707, 67.23350816111707, 66.85469549775411, 66.7169454383494, 66.49884117762527, 65.87896591030406, 65.87896591030406, 65.14429892681225, 64.79992377830047, 64.0882151380428, 64.0882151380428, 63.22727726676332, 62.951777147953905, 62.92881880471979, 62.92881880471979, 62.91733963310272, 62.814027088549196, 62.641839514293295, 62.641839514293295, 62.57296448459094, 62.92881880471979, 63.25023560999745, 63.25023560999745, 63.22727726676332, 63.46833987072158, 63.34206898293392, 63.34206898293392, 62.607401999442125, 62.148235134759744, 61.98752673212091, 61.98752673212091, 61.99900590373797, 61.94161004565267, 61.964568388886796, 61.964568388886796, 62.24006850769622]",64.33793416649917,1.4421432000017376,None
reward-effort-pgACC-TUS,R88533/RE002,B_5,1,2024-08-16_10h08.56.632,2024-08-16 10:11:52,None,None,7,,,2.658517456054687,1,24,avoid,normal,heart,None,None,None,100,-80,-77,accept,0.1903165000003355,success,0,-239,"[-0.8494586996623976, -0.8724170428965166, -0.8724170428965166, -0.9183337293647542, -0.8953753861306355, -0.8953753861306355, -0.8953753861306355, -0.8494586996623976, -0.8379795280453382, -0.8379795280453382, -0.5395210660017931, -0.11479171617059428, 0.6657919537894469, 0.6657919537894469, 2.6402094719236686, 5.957690069253843, 9.895045933905227, 9.895045933905227, 13.64873505268366, 20.49032133645108, 26.011802884256664, 26.011802884256664, 31.820263722488733, 38.030495567317885, 43.94226895010349, 43.94226895010349, 47.477853808157796, 51.03639700944622, 55.14594044835349, 55.14594044835349, 58.417504359215435, 60.46079690705201, 62.18267264961093, 62.18267264961093, 67.00392472877587, 69.29975905218777, 72.92717728317855, 72.92717728317855, 75.7395743293581, 78.33386711481354, 81.13478498937604, 81.13478498937604, 84.16528629627973, 87.01212085731046, 88.99801754706175, 91.557872817666, 91.557872817666, 93.1993943589055, 94.38174903546262, 95.61002039848798, 95.61002039848798, 98.64052170539168, 100.75268928293059, 101.92356478787066, 101.92356478787066, 102.69266928621363, 103.08296112119366, 103.79466976145136, 103.79466976145136, 104.12756573834608, 104.81631603536962, 105.52802467562732, 105.52802467562732, 106.91700444129151, 107.86977568550743, 108.16823414755099, 108.16823414755099, 108.09935911784862, 107.33025461950565, 105.74612893635145, 105.74612893635145, 105.34435792975437, 105.92979568222441, 106.13642077133147, 106.13642077133147, 107.18102538848389, 107.98456740167804, 108.3059842069557, 108.3059842069557, 108.24858834887041, 107.95012988682686, 108.1911924907851, 108.1911924907851, 108.91438030265985, 108.9029011310428, 108.43225509474337, 107.95012988682686, 107.95012988682686, 107.45652550729329, 107.02031698584504, 106.79073355350386, 106.79073355350386, 105.32139958652024, 105.6772539066491, 105.89535816737323, 105.89535816737323, 105.56246219047848, 105.01146195285965, 104.0357323654096, 104.0357323654096, 103.48473212779075, 102.68119011459657, 102.24498159314832, 102.24498159314832, 101.92356478787066, 101.31516869216651, 100.44275164927, 100.44275164927, 99.78843886709761, 99.2259594578617]",104.90513847804584,1.8235544999988633,None
reward-effort-pgACC-TUS,R88533/RE002,B_5,1,2024-08-16_10h08.56.632,2024-08-16 10:11:52,None,None,7,,,2.658517456054687,1,25,avoid,normal,heart,None,None,None,55,-100,-115,accept,0.007903800000349293,success,0,-239,"[-0.6887502970235657, -0.7117086402576845, -0.6887502970235657, -0.6887502970235657, -0.6772711254065062, -0.6772711254065062, -0.14922923102177257, 0.9872087590671107, 3.0649388217548674, 3.0649388217548674, 5.01639799665497, 8.402753623687502, 12.971463927277155, 12.971463927277155, 19.239091630191602, 27.102324187877308, 34.17349390398592, 34.17349390398592, 39.85568385443033, 45.1016652834265, 49.016062804843756, 49.016062804843756, 52.55164766289806, 56.87929536252947, 59.18660885755841, 60.91996377173439, 60.91996377173439, 62.11379761990856, 63.16988140867803, 66.39552863307173, 66.39552863307173, 67.55492496639474, 67.70415419741651, 67.01540390039294, 67.01540390039294, 66.73990378158351, 66.98096638554176, 67.04984141524412, 67.04984141524412, 66.99244555715882, 66.6825079234982, 65.90192425353818, 65.90192425353818, 65.4427573888558, 65.09838224034402, 64.62773620404458, 64.62773620404458, 64.13413182451102, 64.07673596642573, 64.21448602583044, 64.21448602583044, 65.64938247796287, 66.10854934264525, 66.64807040864704, 67.11871644494649, 67.11871644494649, 67.21054981788295, 66.90061218422235, 66.31517443175231, 66.31517443175231, 66.14298685749642, 66.02819514132582, 65.91340342515524, 65.91340342515524, 65.39684070238756, 64.62773620404458, 63.52573572880688, 63.52573572880688, 62.710714543995664, 62.46965194003741, 62.435214425186224, 62.435214425186224, 62.36633939548387, 62.42373525356917, 62.389297738718, 62.389297738718, 62.33190188063269, 62.17119347799386, 61.97604756050386, 61.97604756050386, 61.82681832948208, 61.82681832948208, 61.838297501099134]",64.28825381720567,1.3886841999992612,None
reward-effort-pgACC-TUS,R88533/RE002,B_5,1,2024-08-16_10h08.56.632,2024-08-16 10:11:52,None,None,7,,,2.658517456054687,1,26,avoid,normal,heart,None,None,None,65,-100,-106,accept,0.1426190999991377,success,0,-239,"[-0.7002294686406252, -0.7117086402576845, -0.7231878118747439, -0.7231878118747439, -0.7002294686406252, -0.6657919537894469, -0.4706460362994365, -0.011479171617059428, -0.011479171617059428, 1.124958818471824, 4.155460125375513, 4.155460125375513, 7.8517533860686495, 11.284025699569417, 18.27484121435861, 23.302718382630637, 23.302718382630637, 28.16988714826384, 34.24236893368827, 39.05214184123618, 43.919310606869374, 43.919310606869374, 47.018686943475416, 49.60150055731379, 53.756960682689304, 53.756960682689304, 58.55525441862014, 61.42504732288499, 65.43127821723874, 69.16200899278306, 69.16200899278306, 71.9514476957285, 74.85567811484452, 76.09542864948695, 76.09542864948695, 76.32501208182813, 77.1285540950223, 77.72547101910938, 78.10428368247236, 78.73563812141062, 78.73563812141062, 78.73563812141062, 78.16167954055764, 77.78286687719469, 77.79434604881175, 77.79434604881175, 77.55328344485349, 77.66807516102409, 77.72547101910938, 77.75990853396057, 77.75990853396057, 77.72547101910938, 77.56476261647055, 77.56476261647055, 77.46145007191701, 77.1859499531076, 77.17447078149053, 77.17447078149053, 77.20890829634172, 77.1285540950223, 77.20890829634172, 77.03672072208582, 77.03672072208582, 76.7038247451911, 76.6464288871058, 76.6464288871058, 76.2790953953599, 75.81992853067753, 75.16561574850513, 74.69496971220569, 74.69496971220569, 74.56869882441805, 74.8097614283763, 74.64905302573746, 74.64905302573746, 73.71924012475564, 73.39782331947798, 73.19119823037092, 73.19119823037092, 72.97309396964678, 72.38765621717675, 71.48080165942906, 71.48080165942906, 71.14790568253434, 70.86092639210784, 70.84944722049079, 70.84944722049079, 71.02163479474667, 71.12494733930022, 70.72317633270315]",75.152285097595,1.5008272000013676,None
reward-effort-pgACC-TUS,R88533/RE002,B_5,1,2024-08-16_10h08.56.632,2024-08-16 10:11:52,None,None,7,,,2.658517456054687,1,27,avoid,normal,heart,None,None,None,90,-20,-22,reject,0.9702074999986507,None,-22,-261,"null",None,None,None
reward-effort-pgACC-TUS,R88533/RE002,B_5,1,2024-08-16_10h08.56.632,2024-08-16 10:11:52,None,None,7,,,2.658517456054687,1,28,avoid,normal,heart,None,None,None,85,-80,-87,accept,0.44593520000125864,success,0,-261,"[-0.9183337293647542, -0.9183337293647542, -0.9183337293647542, -0.9068545577476949, -0.8953753861306355, -0.8265003564282789, -0.8265003564282789, -0.321416805277664, 0.3788126633629611, 3.21416805277664, 3.21416805277664, 6.382419419085042, 10.65267126063115, 18.527382989933916, 18.527382989933916, 24.347322999783046, 33.6684103528353, 38.92587095344852, 38.92587095344852, 43.56345628674053, 48.476541738841966, 51.96620991042803, 55.63954482788704, 55.63954482788704, 59.094775484621934, 61.402088979650884, 64.94915300932225, 64.94915300932225, 68.00261265946006, 70.53950958683018, 74.14396947458684, 74.14396947458684, 76.33649125344519, 77.3581375273635, 78.06984616762117, 78.06984616762117, 79.21776332932711, 79.99834699928715, 79.73432605209479, 79.73432605209479, 80.45751386396954, 81.55951433920724, 83.47653599925616, 83.47653599925616, 84.32599469891856, 84.6244531609621, 84.69332819066446, 84.69332819066446, 84.26859884083326, 83.70611943159734, 82.77630653061554, 84.30303635568444, 84.30303635568444, 85.01474499594212, 85.24432842828331, 85.24432842828331, 86.03639126986042, 87.3450168342052, 88.16003801901641, 89.65233032923413, 89.65233032923413, 91.8678104513266, 93.11904015758607, 94.64576998265498, 94.64576998265498, 96.04622891993624, 99.04229271198875, 100.85600182748414, 100.85600182748414, 101.83173141493418, 102.0498356756583, 102.42864833902128, 102.42864833902128, 103.06000277795955, 102.96816940502308, 102.84189851723542, 102.84189851723542, 103.12887780766191, 103.20923200898132, 102.91077354693776, 102.91077354693776, 102.81894017400131, 102.81894017400131, 102.64675259974541, 102.64675259974541, 102.32533579446775, 102.23350242153127, 102.21054407829715, 102.21054407829715, 101.98096064595596, 101.93504395948771, 101.83173141493418, 101.83173141493418, 101.90060644463654, 101.88912727301948, 101.56771046774182, 101.56771046774182, 101.36108537863475, 101.54475212450771, 101.54475212450771, 101.54475212450771, 101.87764810140243]",95.87761682536436,1.7016518999989785,None
reward-effort-pgACC-TUS,R88533/RE002,B_5,1,2024-08-16_10h08.56.632,2024-08-16 10:11:52,None,None,7,,,2.658517456054687,1,29,avoid,normal,heart,None,None,None,60,-60,-63,reject,7.930843400001322,None,-63,-324,"null",None,None,None
reward-effort-pgACC-TUS,R88533/RE002,B_5,1,2024-08-16_10h08.56.632,2024-08-16 10:11:52,None,None,7,,,2.658517456054687,1,30,avoid,normal,heart,None,None,None,55,-20,-18,accept,0.3335270000025048,success,0,-324,"[-0.7461461551088627, -0.7461461551088627, -0.7461461551088627, -0.7346669834918034, -0.5739585808529714, -0.41325017821413945, -0.41325017821413945, -0.06887502970235657, 0.6313544389382686, 1.6989173993247952, 1.6989173993247952, 3.0534596501378077, 3.902918349800206, 3.902918349800206, 5.923252554402665, 8.942274689689295, 11.24958818471824, 16.552965471799695, 16.552965471799695, 20.49032133645108, 24.657260633443652, 28.020657917242065, 28.020657917242065, 32.95670171257762, 36.75630751782429, 41.25614279171159, 41.25614279171159, 43.09281025044109, 44.917998537553544, 46.261061616749494, 46.261061616749494, 47.7877914418184, 48.75204185765139, 49.96883404905969, 49.96883404905969, 50.669063517700316, 51.25450127017035, 52.367980917025115, 52.367980917025115, 54.59494021073464, 55.513273940099396, 56.04131583448413, 56.04131583448413, 56.1905450655059, 57.051482936785355, 58.9340670819831, 58.9340670819831, 60.49523442190319, 61.20694306216087, 61.20694306216087, 61.20694306216087, 61.103630517607336, 61.62019324037501, 62.148235134759744, 62.148235134759744, 62.41225608195211, 62.37781856710093, 61.98752673212091, 61.98752673212091, 61.49392235258736, 60.8855262568832, 60.56410945160554, 60.56410945160554, 60.196775959859636, 59.68021323709196, 59.08329631300487, 59.08329631300487, 58.38306684436425, 57.72875406219187, 57.37289974206302, 57.37289974206302, 57.395858085297135, 57.395858085297135, 57.407337256914204, 57.407337256914204, 57.84354577836246, 58.76187950772721, 59.12921299947311, 59.12921299947311, 58.54377524700308, 58.30271264304484, 58.33715015789601, 58.33715015789601, 58.750400336110154, 58.704483649641915, 57.8894624648307, 57.8894624648307, 57.21219133942419, 56.83337867606123, 56.22498258035707, 56.22498258035707, 55.903565775079414, 55.89208660346235, 55.719899029206466, 55.719899029206466, 55.35256553746056, 55.36404470907762, 55.58214896980175, 55.58214896980175]",58.277162228800414,1.6290071999974316,None
reward-effort-pgACC-TUS,R88533/RE002,B_5,1,2024-08-16_10h08.56.632,2024-08-16 10:11:52,None,None,7,,,2.658517456054687,1,31,avoid,normal,heart,0.7,1.5103361000001314,8,100,-100,-89,accept,0.10319879999951809,success,0,-324,"[-0.5395210660017931, -0.3673334917459017, -0.3673334917459017, -0.18366674587295084, 0.13775005940471313, 0.5969169240870903, 0.5969169240870903, 1.2167921914082993, 2.559855270604252, 3.948835036268443, 3.948835036268443, 5.510002376188526, 8.735649600582224, 11.44473410220825, 11.44473410220825, 17.930466065846826, 22.51065554105354, 28.61757484132915, 28.61757484132915, 34.80484834292419, 40.326329890729774, 44.65397759036118, 44.65397759036118, 47.94849984445723, 50.38208422727383, 53.98654411503049, 56.902253705763584, 56.902253705763584, 61.03475548790498, 65.82157005221876, 70.78057219078843, 70.78057219078843, 77.71399184749232, 82.60411895635964, 87.20726677480047, 87.20726677480047, 91.94816465264601, 93.36010276154433, 94.7835200420597, 98.18135484070929, 98.18135484070929, 100.59198088029177, 100.99375188688884, 100.14429318722644, 100.14429318722644, 100.08689732914115, 100.86748099910119, 101.83173141493418, 101.83173141493418, 102.0498356756583, 102.5893567416601, 103.46177378455663, 103.46177378455663, 104.62117011787964, 104.81631603536962, 104.62117011787964, 104.8277952069867, 104.8277952069867, 105.86092065252204, 105.6772539066491, 105.88387899575618, 105.88387899575618, 106.91700444129151, 107.98456740167804, 107.0317961574621, 107.0317961574621, 105.83796230928793, 105.3328787581373, 105.55098301886143, 105.55098301886143, 105.6198580485638, 104.33419082745314, 104.11608656672901, 104.11608656672901, 104.11608656672901, 103.70283638851487, 102.84189851723542, 102.56639839842599, 102.56639839842599, 102.45160668225539, 102.63527342812834, 102.5090025403407, 102.5090025403407, 102.07279401889244, 101.6595438406783, 100.8100851410159, 100.8100851410159, 98.90454265258404, 95.77072880112681, 95.0934576757203, 95.0934576757203, 94.80647838529381, 94.7835200420597, 94.87535341499618, 94.87535341499618, 94.87535341499618, 94.64576998265498, 93.67004039520494, 93.10756098596902, 93.10756098596902, 92.91241506847902, 93.15347767243726, 93.86518631269495, 93.86518631269495, 95.24268690674208, 96.78089590342803, 97.74514631926104, 97.74514631926104, 98.72087590671109, 100.05245981428999, 101.32664786378358, 101.32664786378358, 101.92356478787066, 103.08296112119366, 106.50375426307737, 106.50375426307737, 108.81106775810632, 110.0852558075999, 111.01506870858174, 111.45127723002999, 111.45127723002999, 111.74973569207354, 111.79565237854176, 112.22038172837297, 112.22038172837297, 113.20759048744007, 113.80450741152717, 114.24071593297542, 114.24071593297542, 114.66544528280662, 115.26236220689373, 115.05573711778665, 114.42438267884837, 114.42438267884837, 114.5850910814872, 114.73432031250898, 114.3325493059119, 114.3325493059119, 114.0226116722513, 114.28663261944368, 114.66544528280662, 114.66544528280662, 114.5047368801678, 114.27515344782661, 115.13609131910607, 115.25088303527666, 115.25088303527666, 115.25088303527666, 115.20496634880841, 115.20496634880841, 114.90650788676489, 115.83632078774669, 117.17938386694264, 117.52375901545442, 117.52375901545442, 117.17938386694264, 115.64117487025666, 115.74448741481021, 115.74448741481021, 116.83500871843087, 117.37452978443265, 116.98423794945263, 116.98423794945263, 116.18069593625849, 115.97407084715141]",111.80976611413652,2.7546556999986933,None
reward-effort-pgACC-TUS,R88533/RE002,B_5,1,2024-08-16_10h08.56.632,2024-08-16 10:11:52,None,None,7,,,2.658517456054687,1,32,avoid,normal,heart,None,None,None,80,-40,-36,reject,0.09703930000250693,None,-36,-360,"null",None,None,None
reward-effort-pgACC-TUS,R88533/RE002,B_5,1,2024-08-16_10h08.56.632,2024-08-16 10:11:52,None,None,7,,,2.658517456054687,1,33,avoid,normal,heart,None,None,None,100,-80,-63,accept,0.044410700000298675,success,0,-360,"[-0.7117086402576845, -0.5969169240870903, -0.5969169240870903, -0.14922923102177257, 0.25254177557530744, 0.25254177557530744, 1.584125683154201, 3.3289597689472346, 5.108231369591445, 5.108231369591445, 8.356836937219263, 10.182025224331714, 13.44210996357659, 13.44210996357659, 18.068216125251542, 23.383072583950053, 28.64053318456327, 28.64053318456327, 35.41324443862833, 43.827477233932896, 48.924229431907285, 48.924229431907285, 55.89208660346235, 60.254171817944936, 62.13675596314269, 62.13675596314269, 64.69661123374694, 66.57919537894468, 69.16200899278306, 69.16200899278306, 74.37355290692803, 77.93209610821646, 83.72907777483147, 83.72907777483147, 87.58607943816344, 91.9252063094119, 93.91110299916318, 93.91110299916318, 95.66741625657328, 100.0180222994388, 101.9694814743389, 101.9694814743389, 104.08164905187785, 106.33156668882148, 108.07640077461451, 108.07640077461451, 109.35058882410812, 109.17840124985223, 108.29450503533864, 108.29450503533864, 107.64019225316626, 108.54704681091395, 109.36206799572517, 109.36206799572517, 109.53425556998107, 110.24596421023875, 110.80844361947466, 110.80844361947466, 111.10690208151821, 111.1642979396035, 111.1642979396035, 111.1642979396035, 111.08394373828408, 111.24465214092292, 110.52146432904817, 110.52146432904817, 110.0852558075999, 110.22300586700462, 110.92323533564526, 110.487026814197, 110.487026814197, 109.95898491981227, 110.87731864917703, 111.07246456666702, 111.07246456666702, 110.84288113432584, 109.82123486040756, 109.60313059968342, 109.60313059968342, 110.0852558075999, 110.33779758317522, 110.38371426964346, 110.38371426964346, 110.72808941815524, 111.24465214092292, 111.02654788019879, 111.02654788019879, 111.00358953696468, 111.39388137194469, 111.15281876798645, 111.15281876798645, 110.93471450726231, 110.30336006832404, 110.02785994951464, 110.02785994951464, 110.40667261287757, 110.47554764257994, 110.24596421023875, 110.24596421023875, 109.83271403202461]",109.40428172360728,1.658589499998925,None
reward-effort-pgACC-TUS,R88533/RE002,B_5,1,2024-08-16_10h08.56.632,2024-08-16 10:11:52,None,None,7,,,2.658517456054687,1,34,avoid,normal,heart,None,None,None,100,-60,-63,accept,0.03769249999822932,success,0,-360,"[-0.6657919537894469, -0.6313544389382686, -0.6313544389382686, -0.39029183498002057, 0.03443751485117828, 0.562479409235912, 0.562479409235912, 2.4335843828165986, 4.3506060428655235, 7.449982379471569, 7.449982379471569, 10.147587709480534, 15.175464877752564, 20.811738141728743, 20.811738141728743, 27.68776194034734, 34.9425984023289, 42.44997663988577, 49.61297972893085, 49.61297972893085, 56.7300661315077, 61.964568388886796, 69.54082165614601, 69.54082165614601, 74.18988616105509, 77.47292924353408, 77.8632210785141, 77.8632210785141, 78.4830963458353, 80.51490972205482, 83.06328582104202, 83.06328582104202, 86.5759123358622, 89.34239269557352, 92.68283163613782, 92.68283163613782, 94.59985329618674, 96.71202087372568, 98.9160218242011, 98.9160218242011, 100.86748099910119, 103.19775283736425, 105.66577473503203, 105.66577473503203, 107.06623367231329, 107.96160905844391, 108.9258594742769, 108.9258594742769, 109.79827651717342, 110.03933912113169, 110.487026814197, 110.487026814197, 110.59033935875053, 109.83271403202461, 109.6375681145346, 109.6375681145346, 109.61460977130048, 109.64904728615166, 110.64773521683581, 110.64773521683581, 111.34796468547646, 111.57754811781764, 112.79434030922594, 112.79434030922594, 112.43848598909709, 111.60050646105175, 111.08394373828408, 111.08394373828408, 110.6018185303676, 111.1642979396035, 111.21021462607175, 111.21021462607175, 109.92454740496109, 108.94881781751103, 108.91438030265985, 108.91438030265985, 109.28171379440576, 108.69627604193572, 108.3059842069557, 108.3059842069557, 108.59296349738219, 108.51260929606276, 108.2256300056363, 108.2256300056363, 108.08787994623157, 107.51392136537861, 106.96292112775976, 105.6772539066491, 105.6772539066491, 104.93110775154024, 105.03442029609376, 105.09181615417906, 105.09181615417906, 105.04589946771084, 105.21808704196671, 105.78056645120265, 105.78056645120265, 105.45914964592498, 105.26400372843496]",107.97197734248512,1.6509914999987814,None
reward-effort-pgACC-TUS,R88533/RE002,B_5,1,2024-08-16_10h08.56.632,2024-08-16 10:11:52,None,None,7,,,2.658517456054687,1,35,avoid,normal,heart,None,None,None,65,-20,-19,accept,0.173630499997671,success,0,-360,"[-0.562479409235912, -0.5395210660017931, -0.5395210660017931, -0.5050835511506149, -0.27550011880942626, -0.080354201319416, -0.080354201319416, 0.10331254455353486, 0.241062603958248, 0.8379795280453382, 0.8379795280453382, 2.089209234304816, 4.5227936171214145, 7.117086402576846, 7.117086402576846, 10.009837650075822, 12.925547240808916, 17.27615328367444, 17.27615328367444, 21.741551042710558, 24.921281580636016, 28.57165815486092, 28.57165815486092, 34.80484834292419, 40.15414231647388, 44.332560785083515, 49.96883404905969, 49.96883404905969, 55.85764908861117, 60.300088504413175, 60.300088504413175, 61.66610992684325, 64.62773620404458, 68.5536128970789, 68.5536128970789, 73.00753148449797, 75.22301160659043, 77.09411658017112, 77.98949196630176, 77.98949196630176, 79.24072167256124, 79.79172191018009, 81.44472262303665, 81.44472262303665, 83.10920250751026, 82.9829316197226, 82.45488972533788, 82.45488972533788, 83.23547339529792, 84.34895304215267, 84.55557813125975, 84.55557813125975, 84.47522392994034, 83.90126534908737, 84.02753623687501, 84.02753623687501, 83.07476499265908, 81.1462641609931, 80.34272214779894, 80.34272214779894, 79.4473467616683, 78.46013800260118, 78.06984616762117, 78.06984616762117, 77.72547101910938, 77.20890829634172, 76.46276214123286, 76.46276214123286, 75.50999089701692, 75.77401184420928, 75.81992853067753, 75.55590758348517, 75.55590758348517, 75.4870325537828, 75.64774095642163, 74.85567811484452, 74.85567811484452, 74.08657361650155, 73.37486497624386, 72.8583022534762, 72.8583022534762, 72.433572903645, 71.74482260662143, 71.22825988385375, 71.22825988385375, 71.06755148121492, 70.65430130300078, 70.26400946802076, 70.26400946802076, 69.74744674525309, 69.59821751423131, 69.59821751423131, 69.59821751423131]",76.64868708480098,1.54141940000045,None
reward-effort-pgACC-TUS,R88533/RE002,B_5,1,2024-08-16_10h08.56.632,2024-08-16 10:11:52,None,None,7,,,2.658517456054687,1,36,avoid,normal,heart,None,None,None,95,-60,-58,accept,0.11630869999862625,success,0,-360,"[-0.34437514851178286, -0.27550011880942626, -0.27550011880942626, -0.06887502970235657, 0.160708402638832, 0.6198752673212091, 0.6198752673212091, 1.285667221110656, 2.6976053300089653, 3.765168290395492, 3.765168290395492, 5.659231607210298, 8.23056604943161, 10.400129485055842, 10.400129485055842, 14.05050605928074, 19.239091630191602, 19.239091630191602, 23.142009979991805, 28.47982478192444, 34.31124396339063, 38.52409994685144, 38.52409994685144, 43.75860220423054, 47.13347865964601, 51.18562624046798, 51.18562624046798, 55.559190626567634, 59.4735881479849, 61.19546389054381, 61.19546389054381, 62.46965194003741, 66.91209135583941, 69.75892591687014, 69.75892591687014, 73.9029068706286, 76.6464288871058, 78.66676309170826, 78.66676309170826, 81.23809753392958, 83.60280688704381, 85.02622416755918, 85.02622416755918, 85.79532866590218, 88.32074642165524, 90.52474737213065, 90.52474737213065, 92.2351439430725, 92.43028986056252, 93.23383187375669, 93.23383187375669, 94.4965407516332, 94.85239507176205, 95.77072880112681, 95.77072880112681, 97.43520868560043, 99.30631365918111, 99.30631365918111, 99.30631365918111, 100.43127247765294, 101.00523105850591, 101.78581472846595, 101.78581472846595, 101.7743355568489, 101.80877307170006, 101.45291875157123, 101.45291875157123, 101.90060644463654, 102.18758573506304, 102.72710680106482, 102.99112774825718, 102.99112774825718, 103.34698206838604, 103.41585709808838, 103.41585709808838, 103.41585709808838, 103.3240237251519, 102.60083591327718, 102.3942108241701, 102.3942108241701, 102.3942108241701, 102.27941910799952, 102.2220232499142, 102.2220232499142, 102.14166904859479, 102.03835650404125, 101.83173141493418, 101.83173141493418, 101.54475212450771, 101.14298111791062, 100.93635602880356, 100.93635602880356, 100.53458502220647, 99.86879306841703, 99.55885543475642, 99.55885543475642, 98.4338966162846, 97.68775046117574, 97.18266691002512, 97.18266691002512, 96.95308347768393, 96.89568761959863, 96.89568761959863, 96.58574998593804, 96.58574998593804, 96.90716679121569, 96.90716679121569]",99.45628348192015,1.7756942999985768,None
reward-effort-pgACC-TUS,R88533/RE002,B_5,1,2024-08-16_10h08.56.632,2024-08-16 10:11:52,None,None,7,,,2.658517456054687,1,37,avoid,normal,heart,None,None,None,60,-20,-19,accept,0.17936229999759234,success,0,-360,"[-0.5050835511506149, -0.5050835511506149, -0.5050835511506149, -0.4591668646823771, -0.13775005940471313, 0.9183337293647542, 0.9183337293647542, 2.651688643540728, 5.01639799665497, 8.104295161643957, 8.104295161643957, 10.64119208901409, 14.773693871155483, 19.50311257738397, 19.50311257738397, 24.760573177997188, 29.260408451884484, 34.87372337262654, 34.87372337262654, 40.65922586762449, 43.023935220738736, 44.826165164617066, 46.58247842202716, 46.58247842202716, 48.5798542833955, 50.86420943519032, 53.97506494341343, 53.97506494341343, 57.2925455407436, 59.87535915458197, 60.897005428500265, 60.897005428500265, 60.897005428500265, 61.0003179730538, 61.310255606714406, 61.310255606714406, 61.1725055473097, 60.90848460011733, 60.82813039879791, 60.82813039879791, 60.91996377173439, 61.0577138311391, 60.8855262568832, 60.8855262568832, 60.449317735434946, 60.11642175854023, 59.255483887260766, 59.255483887260766, 58.55525441862014, 58.5667335902372, 59.26696305887783, 59.26696305887783, 60.23121347471082, 60.62150530969084, 60.90848460011733, 61.12658886084146, 61.12658886084146, 61.24138057701205, 61.792380814630896, 61.792380814630896, 62.20563099284504, 62.400776910335054, 62.92881880471979, 62.92881880471979, 65.87896591030406, 67.52048745154356, 68.53065455384478, 68.53065455384478, 68.96686307529303, 69.33419656703894, 70.10330106538193, 70.10330106538193, 72.23842698615498, 72.64019799275206, 72.433572903645, 72.433572903645, 72.34173953070851, 71.7792601214726, 70.81500970563961, 70.81500970563961, 70.32140532610606, 69.56377999938013, 68.45030035252537, 68.45030035252537, 67.89930011490651, 67.06132058686119, 66.53327869247644, 66.53327869247644, 65.84452839545288, 64.99506969579049]",64.2761402862898,1.4803506999996898,None
reward-effort-pgACC-TUS,R88533/RE002,B_5,1,2024-08-16_10h08.56.632,2024-08-16 10:11:52,None,None,7,,,2.658517456054687,1,38,avoid,normal,heart,None,None,None,50,-80,-84,accept,0.09984880000047269,success,0,-360,"[-0.7920628415771005, -0.7920628415771005, -0.6887502970235657, -0.30993763366060456, 0.18366674587295084, 0.18366674587295084, 1.3430630791959532, 2.9271887623501542, 5.578877405890882, 5.578877405890882, 8.551982854709275, 10.480483686375258, 14.739256356304306, 14.739256356304306, 19.330925003128076, 23.89963530671773, 27.87142868622029, 27.87142868622029, 33.62249366636706, 35.95276550463013, 41.15283024715805, 41.15283024715805, 42.89766433295109, 44.49326918772235, 45.71006137913064, 45.71006137913064, 47.59264552432839, 49.96883404905969, 51.851418194257434, 51.851418194257434, 53.80287736915754, 55.73137820082352, 57.12035796648771, 57.12035796648771, 58.13052506878894, 58.417504359215435, 57.48769145823361, 57.48769145823361, 57.33846222721184, 57.79762909189422, 58.107566725554825, 58.107566725554825, 58.06165003908659, 57.74023323380892, 57.33846222721184, 57.33846222721184, 56.50048269916651, 55.91504494669648, 55.708419857589405, 55.708419857589405, 55.765815715674705, 55.82321157376, 55.8806074318453, 55.8806074318453, 55.811732402142944, 55.32960719422644, 55.100023761885254, 55.100023761885254, 55.16889879158761, 55.37552388069468, 55.60510731303587, 55.60510731303587, 55.73137820082352, 55.82321157376, 55.61658648465293, 55.61658648465293, 55.11150293350231, 54.65233606881994, 53.998023286647545, 53.80287736915754, 53.80287736915754, 53.57329393681635, 52.94193949787809, 52.459814289961585, 52.459814289961585, 52.42537677511041, 52.459814289961585, 52.264668372471576, 52.264668372471576, 52.012126596896266, 51.95473073881097, 52.012126596896266, 52.012126596896266, 52.47129346157865, 53.0222936991975, 53.67660648136988, 53.67660648136988, 54.00950245826461]",54.814895950751875,1.4670019000004686,None
reward-effort-pgACC-TUS,R88533/RE002,B_5,1,2024-08-16_10h08.56.632,2024-08-16 10:11:52,None,None,7,,,2.658517456054687,1,39,avoid,normal,heart,None,None,None,90,-100,-93,accept,0.14678439999988768,success,0,-360,"[2.8009178745625007, 4.775335392696722, 8.597899541177512, 8.597899541177512, 11.157754811781764, 11.157754811781764, 16.67923635958735, 20.903571514665217, 24.599864775358355, 24.599864775358355, 28.376512237370903, 32.738597451853494, 36.239744795056616, 36.239744795056616, 40.50999663660272, 43.2879561679311, 47.018686943475416, 47.018686943475416, 49.762208959952616, 53.607731451667526, 56.46604518431533, 56.46604518431533, 59.22104637240959, 61.88421418756738, 64.98359052417342, 68.71432129971774, 68.71432129971774, 73.04196899934914, 75.50999089701692, 77.58772095970468, 77.58772095970468, 79.29811753064652, 83.61428605866087, 85.6690577781145, 85.6690577781145, 86.8054957682034, 88.25187139195289, 91.46603944472952, 91.46603944472952, 93.18791518728844, 93.71595708167317, 93.71595708167317, 93.24531104537374, 93.24531104537374, 92.55656074835017, 92.39585234571133, 92.39585234571133, 92.39585234571133, 92.44176903217958, 93.33714441831022, 94.34731152061144, 94.34731152061144, 95.82812465921211, 97.25154193972747, 97.7795838341122, 96.6201875007892, 96.6201875007892, 96.47095826976744, 96.74645838857685, 96.95308347768393, 96.95308347768393, 97.30893779781276, 98.41093827305048, 99.29483448756406, 99.29483448756406, 100.06393898590704, 100.0180222994388, 98.04360478130457, 98.04360478130457, 97.03343767900334, 96.78089590342803, 96.94160430606688, 96.94160430606688, 99.14560525654228, 100.27056407501411, 100.20168904531175, 100.20168904531175, 100.22464738854586, 100.41979330603587, 100.38535579118471, 100.22464738854586, 100.22464738854586, 100.06393898590704, 100.06393898590704, 99.99506395620467, 99.99506395620467, 100.08689732914115, 99.32927200241524, 98.64052170539168, 98.64052170539168, 97.68775046117574, 97.57295874500514, 98.02064643807046, 98.0665631245387]",96.3855231236339,1.5623921000005794,None
reward-effort-pgACC-TUS,R88533/RE002,B_5,1,2024-08-16_10h08.56.632,2024-08-16 10:11:52,None,None,7,,,2.658517456054687,1,40,avoid,normal,heart,0.5,2.1161702999997942,0,75,-100,-98,accept,0.5211034000021755,success,0,-360,"[11.789109250720033, 9.83765007581993, 9.83765007581993, 8.242045221048668, 7.472940722705687, 7.071169716108608, 7.071169716108608, 7.266315633598618, 8.253524392665728, 9.665462501564038, 10.733025461950566, 10.733025461950566, 11.82354676557121, 14.854048072474898, 18.573299676402154, 18.573299676402154, 22.935384890884738, 27.389303478303795, 32.991139227428796, 32.991139227428796, 39.25876693034324, 43.63233131644289, 47.22531203258249, 47.22531203258249, 49.89995901935733, 55.12298210511938, 58.463421045683674, 58.463421045683674, 61.402088979650884, 64.67365289051283, 68.8061546726542, 68.8061546726542, 74.2702403623745, 77.19742912472466, 78.33386711481354, 78.33386711481354, 80.35420131941599, 81.13478498937604, 81.58247268244135, 81.58247268244135, 83.18955670882967, 85.09509919726153, 87.18430843156636, 87.18430843156636, 88.29778807842112, 89.9163512764265, 90.47883068566242, 90.47883068566242, 90.14593470876768, 90.1114971939165, 89.96226796289474, 89.4916219265953, 89.4916219265953, 89.12428843484939, 88.9291425173594, 88.87174665927408, 88.87174665927408, 88.6995590850182, 87.93045458667522, 87.13839174509812, 87.13839174509812, 86.25449553058453, 85.6460994348804, 85.6460994348804, 85.48539103224157, 85.8986412104557, 86.19709967249925, 86.19709967249925, 86.35780807513808, 88.079683817697, 88.91766334574233, 89.64085115761708, 89.64085115761708, 90.203330566853, 89.28499683748822, 88.30926725003818, 88.30926725003818, 87.44832937875873, 86.00195375500923, 84.92291162300565, 84.92291162300565, 83.31582759661732, 83.0403274778079, 83.0403274778079, 83.0977233358932, 83.85534866261912, 84.3719113853868, 84.3719113853868, 83.90126534908737, 82.40897303886963, 81.60543102567547, 81.60543102567547, 79.42438841843418, 77.44997090029996]",85.57055907972298,1.573873100001947,None
reward-effort-pgACC-TUS,R88533/RE002,B_5,1,2024-08-16_10h08.56.632,2024-08-16 10:11:52,None,None,7,,,2.658517456054687,1,41,avoid,normal,heart,None,None,None,100,-60,-72,reject,0.13473420000082115,None,-72,-432,"null",None,None,None
reward-effort-pgACC-TUS,R88533/RE002,B_5,1,2024-08-16_10h08.56.632,2024-08-16 10:11:52,None,None,7,,,2.658517456054687,1,42,avoid,normal,heart,None,None,None,75,-40,-41,accept,0.7463895000000775,success,0,-432,"[-0.9757295874500514, -0.9757295874500514, -0.9757295874500514, -0.9757295874500514, -0.9757295874500514, -0.941292072598873, -0.9757295874500514, -0.9757295874500514, -0.9527712442159325, -0.8953753861306355, -0.6543127821723874, -0.6543127821723874, -0.27550011880942626, 0.4247293498311988, 3.0764179933719267, 3.0764179933719267, 5.119710541208504, 7.9321075873880655, 9.906525105522286, 9.906525105522286, 12.40898451804124, 16.598882158267934, 20.66250891070697, 20.66250891070697, 25.828136138383712, 29.662179458481564, 34.770410828073004, 34.770410828073004, 36.68743248812193, 40.76253841217803, 42.5532891844393, 42.5532891844393, 44.95243605240472, 47.076082801560716, 49.658896415399084, 49.658896415399084, 52.56312683451512, 54.847481986309944, 56.22498258035707, 56.22498258035707, 57.48769145823361, 58.92258791036604, 60.5181927651373, 60.5181927651373, 61.103630517607336, 61.45948483773618, 61.849776672716196, 61.849776672716196, 62.34338105224976, 64.01934010834043, 65.7526950225164, 65.7526950225164, 67.0842789300953, 67.53196662316061, 67.94521680137476, 67.94521680137476, 68.7258004713348, 69.35715491027307, 69.9655510059772, 69.9655510059772, 71.65298923368495, 73.97178190033095, 75.21153243497338, 75.21153243497338, 76.41684545476461, 76.88749149106405, 76.92192900591522, 76.92192900591522, 77.23186663957583, 77.9206169365994, 78.98817989698593, 78.98817989698593, 81.00851410158837, 81.96128534580431, 81.96128534580431, 82.82222321708377, 83.5798485438097, 83.5798485438097, 82.9829316197226, 82.9829316197226, 81.59395185405842, 80.54934723690602, 80.27384711809657, 80.27384711809657, 79.59657599269008, 79.10297161315651, 78.81599232273004, 78.81599232273004, 78.52901303230355, 78.01245030953588, 77.57624178808761, 77.57624178808761, 77.31222084089525, 77.01376237885171, 76.96784569238346, 76.96784569238346, 77.00228320723464, 77.3810958705976, 77.36961669898055, 77.36961669898055, 77.48440841515114, 77.64511681778997, 77.63363764617291, 77.63363764617291, 77.57624178808761, 77.71399184749232, 77.93209610821646, 77.93209610821646, 77.94357527983352, 77.97801279468469, 78.06984616762117, 78.06984616762117, 78.04688782438706, 77.87470025013116, 77.66807516102409, 77.66807516102409, 77.27778332604407, 76.94488734914935, 75.91176190361399, 75.91176190361399, 75.07378237556865, 74.99342817424925]",78.16593794293172,2.022968299999775,None
reward-effort-pgACC-TUS,R88533/RE002,B_5,1,2024-08-16_10h08.56.632,2024-08-16 10:11:52,None,None,7,,,2.658517456054687,1,43,avoid,normal,heart,None,None,None,80,-80,-68,accept,0.30368820000148844,success,0,-432,"[-0.8724170428965166, -0.9298129009818137, -0.9298129009818137, -0.941292072598873, -0.8953753861306355, -0.883896214513576, -0.883896214513576, -0.7576253267259222, -0.5854377524700308, -0.4706460362994365, -0.4706460362994365, -0.011479171617059428, 1.2512297062594777, 4.580189475206712, 4.580189475206712, 7.978024273856303, 11.375859072505893, 18.102653640102716, 22.05148867637116, 22.05148867637116, 26.780907382599644, 32.88782668287526, 35.90684881816189, 35.90684881816189, 40.63626752439038, 45.12462362666061, 49.314521266887304, 49.314521266887304, 55.249252992907024, 59.46210897636783, 61.70054744169443, 61.70054744169443, 65.56902827664345, 68.4158628376742, 70.29844698287194, 70.29844698287194, 72.53688544819853, 74.66053219735453, 77.36961669898055, 77.36961669898055, 79.41290924681712, 83.68316108836324, 85.34764097283684, 87.60903778139756, 87.60903778139756, 88.52737151076231, 88.26335056356994, 86.62182902233045, 86.62182902233045, 84.95734913785682, 84.81959907845211, 84.9343907946227, 84.9343907946227, 84.92291162300565, 84.95734913785682, 84.98030748109095, 84.98030748109095, 84.60149481772798, 83.95866120717265, 83.7749944612997, 83.7749944612997, 84.02753623687501, 84.08493209496031, 84.08493209496031, 84.60149481772798, 84.69332819066446, 84.30303635568444, 83.05180664942496, 83.05180664942496, 81.54803516759017, 81.07738913129074, 81.66282688376077, 81.66282688376077, 83.28139008176615, 83.99309872202384, 83.98161955040678, 83.98161955040678, 83.95866120717265, 83.33878593985145, 82.23678546461373, 82.23678546461373, 81.54803516759017, 81.55951433920724, 82.70743150091317, 82.70743150091317, 84.29155718406737, 84.3719113853868, 84.33747387053562, 84.33747387053562, 84.39486972862092, 84.31451552730151, 84.11936960981149, 84.11936960981149, 84.16528629627973, 84.09641126657736, 84.87699493653741, 84.87699493653741, 84.98030748109095, 84.86551576492035]",83.92723462258165,1.6499977000021318,None
reward-effort-pgACC-TUS,R88533/RE002,B_5,1,2024-08-16_10h08.56.632,2024-08-16 10:11:52,None,None,7,,,2.658517456054687,1,44,avoid,normal,heart,None,None,None,90,-60,-55,accept,0.27733900000021094,success,0,-432,"[-0.8379795280453382, -0.8265003564282789, -0.8265003564282789, -0.7805836699600411, -0.7117086402576845, -0.7117086402576845, -0.49360437953355535, -0.18366674587295084, 0.22958343234118855, 0.22958343234118855, 0.964250415832992, 2.066250891070697, 3.478188999969007, 3.478188999969007, 6.795669597299181, 10.572317059311734, 17.012132336482072, 17.012132336482072, 22.005571989902922, 28.4339080954562, 34.770410828073004, 34.770410828073004, 41.00360101613628, 43.90783143525231, 47.54672883786015, 47.54672883786015, 52.81566861009043, 56.7300661315077, 60.254171817944936, 60.254171817944936, 61.631672411992064, 63.181360580295085, 66.08559099941112, 66.08559099941112, 66.6021537221788, 67.1646331314147, 68.16332106209887, 68.16332106209887, 69.66709254393368, 72.3761770455597, 75.4870325537828, 75.4870325537828, 77.75990853396057, 78.99965906860298, 81.35288925010016, 81.35288925010016, 84.10789043819443, 85.96751624015806, 88.03376713122876, 88.03376713122876, 91.54639364604894, 93.54376950741727, 95.33452027967854, 95.33452027967854, 98.15839649747517, 99.99506395620467, 100.28204324663118, 100.28204324663118, 100.97079354365472, 100.71825176807943, 100.40831413441882, 100.40831413441882, 99.85731389679997, 100.0180222994388, 99.04229271198875, 99.04229271198875, 98.90454265258404, 98.72087590671109, 98.10100063938987, 98.10100063938987, 96.91864596283276, 96.65462501564038, 96.53983329946979, 96.53983329946979, 96.45947909815037, 94.87535341499618, 93.71595708167317, 93.71595708167317, 93.22235270213962, 92.57951909158429, 92.21218559983838, 92.21218559983838, 91.97112299588014, 92.05147719719955, 92.48768571864781, 92.48768571864781, 92.91241506847902, 92.85501921039372, 92.75170666584019, 92.75170666584019, 92.92389424009608, 93.44045696286375, 93.94554051401435, 93.94554051401435, 94.4735824083991, 94.89831175823029, 94.86387424337912, 94.86387424337912, 94.48506158001615, 93.5667278506514, 93.02720678464961, 93.02720678464961, 91.95964382426308, 90.6510182599183, 90.29516393978946, 90.29516393978946, 90.96095589357891, 91.40864358664422]",94.75002344291485,1.7896911999996519,None
reward-effort-pgACC-TUS,R88533/RE002,B_5,1,2024-08-16_10h08.56.632,2024-08-16 10:11:52,None,None,7,,,2.658517456054687,1,45,avoid,normal,heart,None,None,None,90,-60,-57,accept,0.04928039999867906,success,0,-432,"[-0.4247293498311988, -0.4247293498311988, -0.44768769306531775, -0.4362085214482583, -0.4362085214482583, -0.40177100659708, -0.30993763366060456, 0.11479171617059428, 0.11479171617059428, 0.9757295874500514, 2.2958343234118854, 2.869792904264857, 2.869792904264857, 5.464085689720288, 9.699900016415217, 15.09511067643315, 15.09511067643315, 20.84617565657992, 26.712032352897292, 34.13905638913474, 34.13905638913474, 38.92587095344852, 44.68841510521236, 48.56837511177844, 48.56837511177844, 52.56312683451512, 59.43915063313372, 63.456860699104524, 63.456860699104524, 70.33288449772311, 75.83140770229458, 79.61953433592419, 79.61953433592419, 83.95866120717265, 86.8054957682034, 89.0668925767641, 90.18037222361886, 90.18037222361886, 92.72874832260605, 94.3587906922285, 94.90979092984735, 94.90979092984735, 95.41487448099797, 96.52835412785274, 95.89699968891446, 95.89699968891446, 95.17381187703971, 95.12789519057148, 95.11641601895442, 95.11641601895442, 95.19677022027383, 95.27712442159326, 94.64576998265498, 94.64576998265498, 94.53097826648438, 94.73760335559146, 94.73760335559146, 94.3587906922285, 92.55656074835017, 90.12297636553357, 90.12297636553357, 89.08985091999823, 89.30795518072236, 90.60510157345007, 90.60510157345007, 91.89076879456071, 92.32697731600898, 92.37289400247721, 92.37289400247721, 92.87797755362783, 93.876665484312, 94.07181140180201, 94.07181140180201, 94.07181140180201, 94.63429081103793, 94.73760335559146, 94.73760335559146, 94.76056169882557, 94.17512394635554, 93.44045696286375, 93.44045696286375, 93.38306110477845, 93.57820702226846, 93.55524867903434, 93.54376950741727, 93.54376950741727, 93.65856122358788, 93.92258217078025, 93.86518631269495, 93.86518631269495, 93.4519361344808, 92.68283163613782, 92.09739388366779, 92.09739388366779, 92.32697731600898]",93.30138962147022,1.579548199999408,None
reward-effort-pgACC-TUS,R88533/RE002,B_5,1,2024-08-16_10h08.56.632,2024-08-16 10:11:52,None,None,7,,,2.658517456054687,1,46,avoid,normal,heart,None,None,None,90,-40,-40,reject,0.11989519999769982,None,-40,-472,"null",None,None,None
reward-effort-pgACC-TUS,R88533/RE002,B_5,1,2024-08-16_10h08.56.632,2024-08-16 10:11:52,None,None,7,,,2.658517456054687,1,47,avoid,normal,heart,None,None,None,50,-20,-23,accept,0.13987560000168742,success,0,-472,"[-0.7920628415771005, -0.7920628415771005, -0.7920628415771005, -0.7691044983429817, -0.7576253267259222, -0.7576253267259222, -0.6772711254065062, -0.6198752673212091, -0.40177100659708, -0.40177100659708, 0.18366674587295084, 1.1708755049400617, 2.4909802409018957, 2.4909802409018957, 4.740897877845543, 8.471628653389859, 12.40898451804124, 12.40898451804124, 17.70088263350564, 22.87798903279944, 27.68776194034734, 27.68776194034734, 34.65561911190241, 39.09805852770441, 42.90914350456814, 42.90914350456814, 46.30697830321773, 49.57854221407967, 52.20727251438628, 52.20727251438628, 55.99539914801589, 57.568045659553036, 59.06033796977076, 59.06033796977076, 60.10494258692316, 60.62150530969084, 60.63298448130789, 60.56410945160554, 60.56410945160554, 60.58706779483967, 60.78221371232967, 60.793692883946726, 60.793692883946726, 60.47227607866906, 60.1508592733914, 60.1508592733914, 60.1508592733914, 60.1508592733914, 60.07050507207199, 60.001630042369634, 60.001630042369634, 59.553942349304315, 59.312879745346066, 59.28992140211194, 59.28992140211194, 59.26696305887783, 59.27844223049489, 59.244004715643705, 59.41619228989959, 59.41619228989959, 59.40471311828254, 59.40471311828254, 59.02590045491958, 59.02590045491958, 58.54377524700308, 58.360108501130135, 58.29123347142777, 58.29123347142777, 58.30271264304484, 57.96981666615011, 57.74023323380892, 57.694316547340684, 57.694316547340684, 57.361420570445965, 57.0400037651683, 56.83337867606123, 56.83337867606123, 56.902253705763584, 56.8678161909124, 56.53492021401768, 56.53492021401768, 56.21350340874002, 56.20202423712296, 56.37421181137885, 56.37421181137885, 56.42012849784709, 56.46604518431533, 56.47752435593239]",58.28728162546126,1.4586591000006592,None
reward-effort-pgACC-TUS,R88533/RE002,B_5,1,2024-08-16_10h08.56.632,2024-08-16 10:11:52,None,None,7,,,2.658517456054687,1,48,avoid,normal,heart,None,None,None,85,-60,-59,accept,0.07175700000152574,success,0,-472,"[-0.642833610555328, -0.6657919537894469, -0.6772711254065062, -0.6772711254065062, -0.642833610555328, -0.6772711254065062, -0.6772711254065062, -0.6772711254065062, -0.6657919537894469, -0.6313544389382686, -0.4247293498311988, -0.22958343234118855, -0.22958343234118855, 0.160708402638832, 2.5024594125189554, 5.096752197974386, 5.096752197974386, 8.999670547774592, 13.64873505268366, 18.791403937126283, 23.337155897481818, 23.337155897481818, 29.09970004924565, 34.46047319441241, 40.40668409204919, 40.40668409204919, 43.873393920401135, 47.50081215139191, 52.907501983026904, 52.907501983026904, 57.59100400278715, 61.20694306216087, 66.6825079234982, 66.6825079234982, 69.89667597627486, 72.72055219407147, 75.29188663629279, 75.29188663629279, 77.15151243825642, 78.75859646464474, 81.13478498937604, 83.48801517087323, 83.48801517087323, 85.20989091343213, 85.7034952929657, 86.6333081939475, 86.6333081939475, 87.39093352067343, 87.45980855037578, 87.65495446786579, 87.65495446786579, 87.87305872858992, 88.25187139195289, 89.33091352395647, 89.33091352395647, 90.01966382098003, 89.41126772527589, 88.90618417412527, 88.94062168897645, 88.94062168897645, 89.27351766587117, 89.42274689689295, 89.60641364276589, 89.60641364276589, 91.11018512460069, 92.02851885396544, 92.88945672524488, 93.32566524669315, 93.32566524669315, 94.57689495295263, 94.70316584074028, 94.48506158001615, 94.48506158001615, 94.39322820707969, 94.27843649090907, 94.12920725988731, 94.12920725988731, 93.54376950741727, 93.4519361344808, 93.49785282094905, 93.49785282094905, 93.47489447771493, 93.34862358992727, 92.43028986056252, 92.43028986056252, 92.39585234571133, 92.48768571864781, 92.82058169554254, 92.82058169554254, 92.60247743481841, 91.71858122030483, 91.29385187047363, 91.79893542162425, 91.79893542162425, 92.17774808498721, 92.09739388366779, 91.59231033251717, 91.44308110149541, 91.44308110149541, 91.38568524341011, 91.29385187047363, 91.33976855694186]",90.76469908851303,1.6979108000014094,None
reward-effort-pgACC-TUS,R88533/RE002,B_5,1,2024-08-16_10h08.56.632,2024-08-16 10:11:52,None,None,7,,,2.658517456054687,1,49,avoid,normal,heart,None,None,None,60,-80,-85,accept,0.26108839999869815,success,0,-472,"[-0.7805836699600411, -0.7805836699600411, -0.7920628415771005, -0.7576253267259222, -0.7920628415771005, -0.7805836699600411, -0.7805836699600411, -0.7805836699600411, -0.7805836699600411, -0.7805836699600411, -0.7576253267259222, -0.6543127821723874, -0.5739585808529714, -0.34437514851178286, -0.34437514851178286, 0.7805836699600411, 3.581501544522542, 6.898982141852716, 6.898982141852716, 11.341421557654716, 15.944569376095547, 21.707113527859377, 21.707113527859377, 26.746469867748466, 31.774347036020494, 38.15676645510554, 38.15676645510554, 43.678248002911126, 48.05181238901077, 54.973752874097606, 60.02458838560375, 60.02458838560375, 63.25023560999745, 67.38273739213885, 69.5178633129119, 69.5178633129119, 70.99867645151257, 72.70907302245442, 74.40799042177922, 74.40799042177922, 75.11969906203689, 75.87732438876283, 75.95767859008224, 75.95767859008224, 75.93472024684812, 75.09674071880278, 75.10821989041983, 75.10821989041983, 75.02786568910042, 74.68349054058864, 74.40799042177922, 74.40799042177922, 74.25876119075744, 73.89142769901153, 73.29451077492445, 72.47948959011323, 72.47948959011323, 71.90553100926026, 71.8940518376432, 72.16955195645262, 72.16955195645262, 71.97440603896261, 71.05607230959787, 70.34436366934017, 70.34436366934017, 69.35715491027307, 68.95538390367598, 69.05869644822951, 69.40307159674131, 69.40307159674131, 69.70153005878484, 69.78188426010426, 69.8851968046578, 69.8851968046578, 69.81632177495544, 69.35715491027307, 68.59952958354715, 68.59952958354715, 67.41717490699001, 67.1990706462659, 67.22202898950002, 67.22202898950002, 67.47457076507531, 67.55492496639474, 67.42865407860708, 67.42865407860708, 66.83173715451998, 66.44144531953997, 66.07411182779407, 66.07411182779407, 66.1200285142623, 66.22334105881585]",70.3501032551487,1.5375324000015098,None
reward-effort-pgACC-TUS,R88533/RE002,B_5,1,2024-08-16_10h08.56.632,2024-08-16 10:11:52,None,None,7,,,2.658517456054687,1,50,avoid,normal,heart,0.7,1.3840041999974346,10,65,-20,-20,reject,0.26834859999871696,None,-20,-492,"null",None,None,None
reward-effort-pgACC-TUS,R88533/RE002,B_5,1,2024-08-16_10h08.56.632,2024-08-16 10:11:52,None,None,7,,,2.658517456054687,2,51,avoid,shifted,heart,None,None,None,55,-20,-20,accept,0.2905495000013616,success,0,-492,"[-0.9986879306841702, -0.9986879306841702, -1.0331254455353485, -0.9986879306841702, -0.9986879306841702, -1.0331254455353485, -1.021646273918289, -1.044604617152408, -1.044604617152408, -1.0560837887694674, -1.0331254455353485, -1.0101671023012297, -1.0101671023012297, -0.9298129009818137, -0.40177100659708, 0.44768769306531775, 0.44768769306531775, 2.8009178745625007, 4.913085452101435, 9.137420607179305, 9.137420607179305, 11.869463452039449, 16.093798607117318, 21.466050923901133, 21.466050923901133, 25.862573653234893, 31.510326088828126, 35.52803615479893, 35.52803615479893, 40.63626752439038, 44.676935933595296, 47.09904114479483, 47.09904114479483, 49.762208959952616, 51.828459851023325, 54.93931535924642, 54.93931535924642, 56.81042033282711, 58.86519205228075, 61.41356815126794, 61.41356815126794, 62.85994377501743, 65.10986141196108, 67.49752910830944, 69.74744674525309, 69.74744674525309, 73.3633858046268, 74.92455314454689, 75.57886592671927, 75.57886592671927, 76.41684545476461, 76.54311634255227, 76.95636652076641, 76.95636652076641, 77.27778332604407, 77.28926249766113, 77.20890829634172, 77.16299160987347, 77.16299160987347, 77.24334581119288, 77.10559575178819, 76.48572048446697, 76.48572048446697, 76.23317870889166, 76.85305397621288, 77.48440841515114, 77.48440841515114, 77.8058252204288, 78.37978380128177, 79.36699256034888, 79.36699256034888, 79.99834699928715, 80.75597232601308, 81.12330581775898, 81.12330581775898, 80.53786806528895, 79.57361764945595, 80.21645126001128, 80.21645126001128, 80.84780569894954, 80.58378475175718, 79.36699256034888, 79.36699256034888, 78.73563812141062, 78.00097113791881, 77.73695019072645, 77.39257504221466, 77.39257504221466, 77.33517918412936, 77.66807516102409, 77.8058252204288, 77.8058252204288, 77.58772095970468, 77.11707492340524, 76.2790953953599, 76.2790953953599, 76.30205373859403, 76.50867882770109, 77.02524155046876, 77.02524155046876, 77.33517918412936, 77.65659598940702, 77.66807516102409, 77.66807516102409, 77.7484293623435, 78.01245030953588, 77.85174190689705, 77.85174190689705]",77.85004825862566,1.790437399999064,None
reward-effort-pgACC-TUS,R88533/RE002,B_5,1,2024-08-16_10h08.56.632,2024-08-16 10:11:52,None,None,7,,,2.658517456054687,2,52,avoid,shifted,heart,None,None,None,90,-40,-40,reject,0.31917299999986426,None,-40,-532,"null",None,None,None
reward-effort-pgACC-TUS,R88533/RE002,B_5,1,2024-08-16_10h08.56.632,2024-08-16 10:11:52,None,None,7,,,2.658517456054687,2,53,avoid,shifted,heart,None,None,None,90,-60,-55,accept,0.4340007999999216,success,0,-532,"[-1.0331254455353485, -1.0331254455353485, -1.021646273918289, -1.021646273918289, -1.021646273918289, -1.0331254455353485, -0.9986879306841702, -0.9986879306841702, -1.0101671023012297, -0.9757295874500514, -0.4362085214482583, -0.4362085214482583, 1.4004589372812504, 3.879960006566087, 8.265003564282788, 8.265003564282788, 11.743192564251794, 17.207278253972085, 22.763197316628847, 22.763197316628847, 28.032137088859123, 34.16201473236885, 40.45260077851742, 44.65397759036118, 44.65397759036118, 50.09510493684735, 54.80156529984171, 54.80156529984171, 57.72875406219187, 61.98752673212091, 66.80877881128588, 66.80877881128588, 72.3187811874744, 76.69234557357404, 79.34403421711477, 79.34403421711477, 82.11051457682609, 85.14101588372978, 87.68939198271697, 87.68939198271697, 90.46735151404536, 92.51064406188193, 93.80779045460964, 93.80779045460964, 95.86256217406329, 98.13543815424104, 100.70677259646237, 100.70677259646237, 101.64806466906124, 102.79598183076718, 103.85206561953663, 103.85206561953663, 104.79335769213552, 104.73596183405023, 104.35714917068725, 104.35714917068725, 104.70152431919904, 105.0573786393279, 105.45914964592498, 105.45914964592498, 106.65298349409915, 107.39912964920802, 108.40929675150923, 108.40929675150923, 108.58148432576513, 109.43094302542752, 110.91175616402819, 110.91175616402819, 111.12986042475232, 111.18725628283761, 111.17577711122055, 111.17577711122055, 111.54311060296646, 111.60050646105175, 111.23317296930585, 111.23317296930585, 111.2216937976888, 111.25613131253998, 111.07246456666702, 111.07246456666702, 110.70513107492113, 110.63625604521876, 110.64773521683581, 110.64773521683581, 110.28040172508993, 110.38371426964346, 109.71792231585403, 109.71792231585403, 108.2256300056363, 106.83665023997209, 106.40044171852384, 106.40044171852384, 106.76777521026975, 107.54835888022978, 108.26006752048747, 108.26006752048747, 108.26006752048747, 108.42077592312629, 108.15675497593394, 108.15675497593394, 106.68742100895032, 105.83796230928793, 105.70021224988322, 105.70021224988322, 105.74612893635145, 106.09050408486323, 106.239733315885]",107.77907141141857,1.7741888000018662,None
reward-effort-pgACC-TUS,R88533/RE002,B_5,1,2024-08-16_10h08.56.632,2024-08-16 10:11:52,None,None,7,,,2.658517456054687,2,54,avoid,shifted,heart,None,None,None,65,-20,-20,reject,0.10397209999791812,None,-20,-552,"null",None,None,None
reward-effort-pgACC-TUS,R88533/RE002,B_5,1,2024-08-16_10h08.56.632,2024-08-16 10:11:52,None,None,7,,,2.658517456054687,2,55,avoid,shifted,heart,None,None,None,75,-60,-56,accept,0.06942309999794816,success,0,-552,"[-0.964250415832992, -0.964250415832992, -0.964250415832992, -0.9298129009818137, -0.9298129009818137, -0.9298129009818137, -0.35585432012884227, 0.11479171617059428, 0.11479171617059428, 0.4247293498311988, 0.7117086402576845, 2.4221052111995394, 2.4221052111995394, 6.497211135255636, 10.537879544460555, 18.20596618465625, 18.20596618465625, 24.232531283612452, 33.40438940564294, 38.9603084682997, 38.9603084682997, 44.665456761978234, 48.02885404577665, 51.41520967280918, 51.41520967280918, 57.2925455407436, 61.26433892024616, 66.73990378158351, 66.73990378158351, 70.60838461653253, 77.3581375273635, 80.96259741512014, 80.96259741512014, 85.40503683092214, 89.25055932263706, 92.54508157673311, 92.54508157673311, 95.1508535338056, 97.68775046117574, 98.87010513773285, 98.87010513773285, 100.15577235884352, 100.83304348425001, 101.53327295289066, 101.53327295289066, 102.10723153374362, 102.37125248093596, 102.42864833902128, 102.42864833902128, 102.5893567416601, 102.42864833902128, 101.56771046774182, 101.56771046774182, 100.8904393423353, 100.95931437203767, 100.35091827633352, 100.35091827633352, 98.72087590671109, 98.08952146777281, 98.57164667568931, 98.57164667568931, 98.61756336215754, 96.76941673181098, 95.6903745998074, 95.6903745998074, 95.25416607835913, 94.86387424337912, 94.87535341499618, 94.87535341499618, 95.1508535338056, 95.44931199584914, 95.40339530938091, 95.40339530938091, 95.66741625657328, 96.000312233468, 96.22989566580918, 96.22989566580918, 95.55262454040268, 95.07049933248618, 95.27712442159326, 95.27712442159326, 95.70185377142445, 94.77204087044264, 94.00293637209965, 94.00293637209965, 93.71595708167317, 93.40601944801257, 92.62543577805252, 92.15478974175309, 92.15478974175309, 91.6726645338366, 90.96095589357891, 88.77991328633762, 88.77991328633762, 87.33353766258813, 86.33484973190396, 86.16266215764806, 86.16266215764806, 87.72382949756815, 91.06426843813244, 92.13183139851897, 92.13183139851897, 93.63560288035376, 93.876665484312, 93.83074879784377, 93.83074879784377, 93.38306110477845, 93.24531104537374, 93.67004039520494, 93.67004039520494, 94.74908252720851, 95.95439554699976, 97.43520868560043, 97.43520868560043, 98.87010513773285, 100.06393898590704, 99.9606264413535, 99.9606264413535, 100.41979330603587, 100.76416845454766, 101.99243981757303, 101.99243981757303, 102.31385662285068, 102.40568999578716, 102.60083591327718, 102.60083591327718, 102.83041934561837, 102.75006514429894, 102.40568999578716, 102.40568999578716, 102.23350242153127, 101.93504395948771, 101.28073117731533, 101.28073117731533, 101.08558525982532, 100.90191851395238, 100.39683496280176, 100.39683496280176, 100.14429318722644, 100.36239744795057, 100.6149392235259, 100.6149392235259, 100.68381425322825, 100.77564762616471, 100.37387661956765, 100.37387661956765, 99.67364715092701, 97.67627128955867, 97.20562525325923, 97.20562525325923, 96.72350004534273, 95.95439554699976, 95.47227033908327, 95.47227033908327, 95.55262454040268, 95.71333294304151, 94.79499921367676, 94.79499921367676, 94.37026986384555, 94.31287400576026]",98.24194981219603,2.654680100000405,None
reward-effort-pgACC-TUS,R88533/RE002,B_5,1,2024-08-16_10h08.56.632,2024-08-16 10:11:52,None,None,7,,,2.658517456054687,2,56,avoid,shifted,heart,None,None,None,100,-60,-72,accept,0.11685379999835277,success,0,-552,"[-0.7691044983429817, -0.7461461551088627, -0.7461461551088627, -0.7805836699600411, -0.7461461551088627, -0.7576253267259222, -0.7576253267259222, -0.7231878118747439, -0.7117086402576845, -0.6772711254065062, -0.6772711254065062, -0.6887502970235657, -0.6657919537894469, -0.6198752673212091, -0.6198752673212091, -0.49360437953355535, -0.26402094719236685, 0.34437514851178286, 0.34437514851178286, 2.307313495028945, 3.455230656734888, 4.62610616167495, 4.62610616167495, 6.072481785424437, 9.22925398011578, 10.43456699990702, 10.43456699990702, 11.548046646761785, 13.6372558810666, 14.945881445411374, 14.945881445411374, 16.67923635958735, 17.953424409080945, 18.69957056418981, 18.69957056418981, 20.49032133645108, 21.523446781986426, 23.440468442035353, 23.440468442035353, 25.575594362808406, 27.228595075664963, 28.261720521200314, 28.261720521200314, 29.673658630098622, 30.454242300058667, 31.843222065722856, 31.843222065722856, 32.40570147495877, 33.31255603270646, 34.322723135007685, 34.322723135007685, 35.09182763335067, 36.51524491386604, 39.46539201945031, 39.46539201945031, 41.91045557388397, 43.414227055718754, 44.59658173227588, 44.59658173227588, 45.75597806559888, 46.9957286002413, 48.074770732244886, 48.074770732244886, 49.762208959952616, 51.46112635927742, 54.5490235242664, 54.5490235242664, 57.2351496826583, 59.41619228989959, 61.03475548790498, 61.03475548790498, 61.94161004565267, 64.35223608523515, 66.90061218422235, 66.90061218422235, 69.02425893337835, 70.96423893666139, 73.74219846798977, 73.74219846798977, 76.61199137225462, 77.79434604881175, 78.9652215537518, 78.9652215537518, 79.76876356694596, 81.54803516759017, 84.24564049759914, 84.24564049759914, 85.45095351739039, 87.21874594641753, 89.13576760646646, 89.13576760646646, 91.45456027311246, 92.26958145792368, 92.28106062954075, 92.28106062954075, 92.51064406188193, 92.49916489026488, 94.38174903546262, 94.38174903546262, 96.59722915755509, 99.82287638194879, 100.97079354365472, 100.97079354365472, 102.2220232499142, 103.34698206838604, 104.36862834230432, 104.36862834230432, 106.11346242809736, 109.33910965249105, 110.96915202211348, 111.79565237854176, 111.79565237854176, 113.20759048744007, 114.84911202867958, 115.72152907157609, 115.72152907157609, 116.2036542794926, 117.79925913426385, 118.49948860290446, 118.49948860290446, 118.95865546758687, 118.82090540818213, 118.84386375141627, 118.84386375141627, 118.82090540818213, 118.67167617716036, 117.56967570192268, 117.56967570192268, 118.26990517056328, 119.01605132567215, 120.09509345767573, 120.09509345767573, 120.62313535206046, 121.75957334214935, 122.02359428934173, 122.02359428934173, 122.24169855006586, 122.80417795930177, 123.17151145104765, 123.17151145104765, 123.59624080087886, 124.11280352364653, 124.25055358305126, 124.25055358305126, 123.94061594939065, 123.71103251704945, 123.45849074147415, 123.21742813751591, 123.21742813751591, 122.78121961606765, 122.28761523653408, 121.25448979099873, 121.25448979099873, 120.08361428605868, 120.0491767712075, 119.47521819035454, 119.47521819035454, 118.70611369201154, 117.77630079102974, 117.28269641149618, 117.28269641149618, 116.55950859962144, 115.6641332134908, 115.0672162894037, 115.0672162894037, 114.5850910814872, 113.70119486697364, 113.70119486697364, 113.64379900888835, 113.83894492637833]",118.72722055595256,2.8290033000012045,None
reward-effort-pgACC-TUS,R88533/RE002,B_5,1,2024-08-16_10h08.56.632,2024-08-16 10:11:52,None,None,7,,,2.658517456054687,2,57,avoid,shifted,heart,0.6,2.1147813000025053,7,80,-100,-81,accept,0.3020366999990074,success,0,-552,"[-0.5280418943847337, -0.5280418943847337, -0.5280418943847337, -0.5165627227676742, -0.5510002376188525, -0.5510002376188525, -0.5739585808529714, -0.5280418943847337, -0.5395210660017931, -0.5395210660017931, -0.5395210660017931, -0.482125207916496, -0.5395210660017931, -0.5395210660017931, -0.5280418943847337, -0.5395210660017931, -0.5395210660017931, -0.5395210660017931, -0.5280418943847337, -0.5165627227676742, -0.482125207916496, -0.482125207916496, -0.49360437953355535, -0.4706460362994365, -0.44768769306531775, -0.34437514851178286, -0.34437514851178286, -0.27550011880942626, -0.17218757425589143, 0.12627088778765372, 0.12627088778765372, 0.6543127821723874, 1.5267298250689039, 2.8583137326477974, 2.8583137326477974, 4.3965227293337605, 5.808460838232071, 8.793045458667521, 11.949817653358865, 11.949817653358865, 15.393569138476693, 20.088550329853998, 23.210885009694163, 23.210885009694163, 28.307637207668552, 33.74876455415472, 36.27418230990779, 36.27418230990779, 41.31353864979688, 43.368310369250516, 45.73301972236476, 45.73301972236476, 47.317145405518964, 47.93702067284017, 48.912750260290224, 48.912750260290224, 50.30173002595441, 53.320752161241046, 55.77729488729176, 55.77729488729176, 57.30402471236067, 59.990150870752565, 61.298776435097345, 61.298776435097345, 61.88421418756738, 62.22858933607915, 62.75663123046389, 62.75663123046389, 63.13544389382686, 64.46702780140575, 66.96948721392471, 68.8061546726542, 68.8061546726542, 70.43619704227665, 73.03048982773208, 74.86715728646159, 74.86715728646159, 76.12986616433813, 78.23055457026, 80.91668072865191, 80.91668072865191, 83.78647363291677, 84.95734913785682, 86.25449553058453, 86.25449553058453, 86.78253742496928, 87.40241269229048, 87.64347529624872, 87.64347529624872, 88.3896214513576, 89.27351766587117, 92.02851885396544, 92.02851885396544, 92.65987329290371, 91.79893542162425, 91.40864358664422, 91.40864358664422, 90.7084141180036, 91.82189376485836, 93.05016512788372, 94.46210323678204, 94.46210323678204, 96.87272927636451, 98.6864383918599, 99.57033460637348, 99.57033460637348, 99.7080846657782, 100.75268928293059, 102.02687733242419, 102.02687733242419, 102.54344005519187, 104.10460739511196, 106.59558763601385, 106.59558763601385, 108.11083828946568, 109.0406511904475, 110.26892255347288, 110.26892255347288, 110.71661024653818, 110.67069356006995, 110.96915202211348, 110.96915202211348, 111.07246456666702, 111.15281876798645, 110.93471450726231, 110.93471450726231, 110.72808941815524, 110.50998515743112, 109.18988042146928, 107.9386507152098, 107.9386507152098, 107.3417337911227, 106.73333769541857, 106.73333769541857, 105.6772539066491, 104.71300349081609, 104.11608656672901, 104.11608656672901, 104.02425319379253, 103.6683988736637, 102.77302348753305, 102.27941910799952, 102.27941910799952, 102.44012751063833, 102.53196088357481, 102.37125248093596, 102.37125248093596, 102.1646273918289, 102.02687733242419, 101.98096064595596, 101.98096064595596, 101.9694814743389, 101.41848123672004, 100.8100851410159, 100.8100851410159, 100.70677259646237, 100.33943910471646, 100.14429318722644, 100.14429318722644, 98.15839649747517, 97.8140213489634]",103.98518698070872,2.7349245000004885,None
reward-effort-pgACC-TUS,R88533/RE002,B_5,1,2024-08-16_10h08.56.632,2024-08-16 10:11:52,None,None,7,,,2.658517456054687,2,58,avoid,shifted,heart,None,None,None,95,-20,-16,reject,0.3411199999973178,None,-16,-568,"null",None,None,None
