expName,curec_ID,trial_schedule,session_nr,date,end_date,participant,age,gender,max_strength,block_number,trial_count,block_action_type,block_global_effort_state,block_attention_focus,trial_rating,trial_effort,trial_outcome_level,trial_actual_outcome,response,response_time,result,points,cumulative_points,effort_trace,effort_expended,effort_response_time,final_bonus_payment
reward-effort-pgACC-TUS,R88533/RE002,A_1,1,2024-07-10_11h25.03.325,None,999,28,f,2.989898681640625,1,1,approach,normal,heart,None,50,100,95,accept,2.2192838999908417,success,95,95,"[0.6736549865779348, 0.6532411991058761, 0.6430343053698468, 0.6532411991058761, 0.6328274116338174, 0.6430343053698468, 0.6430343053698468, 0.6430343053698468, 0.6634480928419054, 0.7042756677860227, 0.7042756677860227, 0.7655170302021985, 0.8982066487705797, 1.0308962673389608, 1.3064823982117522, 2.153654578302185, 2.5313096465352696, 2.6129647964235043, 2.6742061588396804, 2.6435854776315924, 2.6231716901595337, 2.5823441152154163, 2.5721372214793874, 2.8375164586161494, 3.9602747695793736, 6.614067140946996, 7.940963326630807, 9.033100956385944, 10.319169567125638, 12.993375725965317, 16.035030059302052, 19.546201504496135, 23.455441805395363, 27.619854449695325, 31.33516376961, 37.33681728639523, 40.92964388147755, 44.64495320139222, 49.83005521929511, 52.932950915048025, 54.40274361303624, 56.10729486695314, 58.58757004480827, 60.12881099894869, 61.75170710297735, 63.38481010074204, 64.49736151796924, 65.22205097322733, 65.42618884794791, 65.11998203586703, 64.71170628642585, 64.39529258060894, 63.62977555040674, 63.19087911975748, 62.4661896644994, 62.139569064946464, 61.93543119022588, 61.86398293407367, 62.170189746154556, 62.139569064946464, 61.93543119022588, 61.96605187143397, 62.139569064946464, 62.3641207271391, 63.313361844589835, 64.068671981056, 64.79336143631409, 65.13018892960305, 65.24246476069938, 65.39556816673982, 65.83446459738907, 65.95694732222142, 65.95694732222142, 65.95694732222142, 65.90591285354128, 65.55887846651629, 63.65018933787881, 62.302879364722926, 61.700672634297206, 60.986190072775145, 59.791983505659715, 58.79170791952885, 57.924121951966356, 56.81157053473916, 55.58674328641564]",62.0233842107172,1.88523090002127,None
reward-effort-pgACC-TUS,R88533/RE002,A_1,1,2024-07-10_11h25.03.325,None,999,28,f,2.989898681640625,1,2,approach,normal,heart,None,70,40,38,reject,1.3526604999788105,None,0,95,"null",None,None,None
reward-effort-pgACC-TUS,R88533/RE002,A_1,1,2024-07-10_11h25.03.325,None,999,28,f,2.989898681640625,1,3,approach,normal,heart,None,60,100,119,accept,2.287589899962768,success,119,214,"[2.5108958590632113, 2.8068957774080614, 2.98041297092056, 3.3376542516815855, 3.500964551458055, 3.500964551458055, 3.796964469802905, 4.113378175619813, 4.521653925060986, 6.277239647658028, 7.889928857950659, 9.2270319373705, 13.350617006726342, 17.494615863554245, 22.92468333112184, 32.22316352464454, 37.20412766782685, 40.062057913915055, 43.19557429087606, 47.43143519132823, 50.41184816224879, 53.18812325844876, 54.331295356884034, 57.995570208118565, 60.22067304257296, 60.22067304257296, 63.39501699447807, 65.30370612311556, 67.10011942065671, 68.30453288150818, 68.76384309962948, 69.77432557949639, 70.56025639717065, 71.68301470813387, 72.62204893184857, 73.816255498964, 74.37763465444561, 74.83694487256693, 75.28604819695222, 75.28604819695222, 75.32687577189634, 75.73515152133751, 75.5208067528809, 74.60218631663825, 74.21432435466915, 73.97956579874047, 73.3977728557868, 72.3158421197677, 72.0402559888949, 71.80549743296622, 71.18287691506843, 70.53984260969858, 70.44798056607434, 70.31529094750594, 70.47860124728241, 71.05018729650006, 70.97873904034785, 71.02977350902799, 71.58094577077358, 72.30563522603165, 72.2852214385596, 71.03998040276403, 69.63142906719199, 68.7332224184214, 68.4882569687567, 68.46784318128464, 68.63115348106112, 69.17211884907066, 69.87639451685669, 70.59087707837874, 71.13184244638829]",70.55090007791263,1.5431048999307677,None
reward-effort-pgACC-TUS,R88533/RE002,A_1,1,2024-07-10_11h25.03.325,None,999,28,f,2.989898681640625,1,4,approach,normal,heart,None,80,80,74,accept,0.9202538999961689,success,74,288,"[1.1125514172271953, 1.1227583109632244, 1.2554479295316057, 1.49020648546028, 1.6126892102926318, 2.2251028344543906, 2.2251028344543906, 2.7048268400477684, 3.9704816633154034, 6.011860410521266, 9.10454921253815, 9.10454921253815, 13.330203219254283, 19.280822267359373, 24.598613903830646, 31.21268104477764, 31.21268104477764, 38.990334071631985, 43.440539740540764, 48.68688312085983, 51.25902034233921, 54.0046747573311, 55.91336388596858, 55.91336388596858, 59.45515601237076, 61.84356914660162, 65.53846467904422, 67.99832606942729, 69.65184285466404, 71.42784236473314, 73.71418656160371, 75.2758413032162, 77.40908209404633, 77.40908209404633, 79.11363334796322, 80.75694323946394, 82.00218427525951, 82.84935645534995, 83.44135629203964, 83.9823216600492, 83.9823216600492, 84.5743214967389, 84.95197656497199, 85.5133557204536, 86.13597623835139, 86.68714850009697, 87.69763097996388, 87.69763097996388, 88.59583762873444, 88.95307890949547, 89.37156155267267, 89.49404427750503, 89.49404427750503, 89.72880283343369, 89.73900972716973, 89.60632010860135, 89.5859063211293, 89.5859063211293, 89.5859063211293, 89.69818215222561, 89.73900972716973, 89.56549253365723, 89.45321670256091, 89.483837383769, 89.136802996744, 88.56521694752637, 88.00383779204475, 88.00383779204475, 87.65680340501974, 87.57514825513152, 87.15666561195431, 86.80963122492932, 86.8402519061374, 86.86066569360946, 86.4217692629602, 86.37073479428005, 86.37073479428005, 87.15666561195431, 87.31997591173078, 87.20770008063447, 87.06480356833005, 86.86066569360946, 86.58507956273668, 86.50342441284845, 86.75859675624918, 86.75859675624918, 87.03418288712196]",86.74375036536036,1.6712643000064418,None
reward-effort-pgACC-TUS,R88533/RE002,A_1,1,2024-07-10_11h25.03.325,None,999,28,f,2.989898681640625,1,5,approach,normal,heart,None,70,60,71,reject,1.1798568000085652,None,0,288,"null",None,None,None
reward-effort-pgACC-TUS,R88533/RE002,A_1,1,2024-07-10_11h25.03.325,None,999,28,f,2.989898681640625,1,6,approach,normal,heart,0.5900000000000001,50,80,59,accept,1.0256527999881655,success,59,347,"[7.624549620813897, 8.165514988823452, 8.522756269584479, 8.818756187929328, 9.09434231880212, 9.604687005603585, 10.71723842283078, 11.809376052585916, 14.207996080552807, 14.207996080552807, 16.473926489951314, 18.92358098659835, 21.99585600114317, 24.85378624723138, 29.161095403835752, 32.03943943739602, 36.23447276290406, 36.23447276290406, 38.27585151010992, 41.256264481030485, 43.26702254702826, 46.46178028640544, 48.96246925173262, 50.24853786247231, 50.24853786247231, 50.84053769916201, 51.269227236075245, 52.8921233401039, 52.8921233401039, 53.239157727128905, 53.66784726404214, 53.99446786359508, 54.23943331325978, 54.433364294244335, 54.6987435313811, 55.72963979872006, 58.05681157053474, 58.05681157053474, 60.08798342400458, 61.79253467792147, 62.54784481438763, 61.915017402753826, 61.82315535912956, 61.71087952803324, 61.71087952803324, 61.700672634297206, 61.700672634297206, 61.772120890449415, 62.10894838373837, 62.10894838373837, 62.51722413317955, 63.109223969869255, 63.150051544813365, 63.078603288661164, 63.078603288661164, 63.96660304369571, 64.97708552356262, 65.2832923356435, 64.78315454257806, 64.8341890112582, 65.68136119134864, 65.68136119134864, 65.3547405917957, 65.3547405917957, 64.97708552356262, 65.0077062047707, 65.03832688597879, 64.47694773049719, 64.38508568687291, 64.48715462423321, 64.49736151796924, 64.45653394302512, 64.37487879313689, 64.3442581119288, 64.39529258060894, 63.84412031886336]",60.5478606917779,1.4562528999522328,None
reward-effort-pgACC-TUS,R88533/RE002,A_1,1,2024-07-10_11h25.03.325,None,999,28,f,2.989898681640625,1,7,approach,normal,heart,None,80,20,23,reject,1.3084314999869093,None,0,347,"null",None,None,None
reward-effort-pgACC-TUS,R88533/RE002,A_1,1,2024-07-10_11h25.03.325,None,999,28,f,2.989898681640625,1,8,approach,normal,heart,None,85,100,98,accept,1.1607647000346333,success,98,445,"[3.1845508456411458, 3.8275851510109926, 4.807446949669807, 6.644687822155084, 8.073652945199187, 9.686342155491818, 12.391168995539587, 16.259581721494698, 20.352546109642454, 24.078062323293153, 29.252957447460016, 33.478611454176146, 37.39805864881141, 40.72550600675696, 42.828126116379, 45.7166770436753, 48.993089932940705, 51.14674451124289, 53.279985302073015, 54.09653680095536, 55.00495034346198, 58.0772253580068, 59.49598358731487, 60.85350045420677, 62.54784481438763, 64.81377522378614, 66.3652230716626, 67.4471538076817, 68.33515356271626, 68.65156726853317, 69.62122217345595, 70.28467026629785, 71.92798015779857, 73.3977728557868, 74.52053116675003, 74.65322078531841, 75.08191032223164, 75.51059985914486, 76.07197901462648, 77.13349596317353, 77.97046124952793, 78.6543231298419, 79.22590917905954, 79.37901258509997, 79.51170220366835, 80.24659855266248, 81.2672879262654, 81.69597746317862, 81.86949465669113, 82.31859798107642, 82.40025313096466, 82.56356343074113, 82.90039092403009, 83.26783909852715, 83.41073561083155, 83.40052871709553, 83.45156318577567, 83.59445969808009, 83.59445969808009, 83.74756310412053, 84.08439059740948, 84.38039051575434, 84.83970073387566, 85.61542465781389, 86.34011411307196, 86.56466577526461, 86.80963122492932, 87.68742408622784, 88.11611362314108, 88.44273422269401, 88.75914792851091, 88.92245822828738, 89.136802996744, 89.5552856399212, 89.66756147101752, 89.67776836475355, 89.60632010860135, 89.63694078980944, 89.60632010860135, 89.70838904596164, 89.74921662090576, 89.69818215222561, 89.72880283343369, 89.74921662090576, 89.71859593969768, 89.69818215222561, 89.72880283343369, 89.68797525848959, 89.6573545772815, 89.68797525848959, 89.67776836475355, 89.68797525848959, 89.59611321486533]",86.86609489240521,2.075968399993144,None
reward-effort-pgACC-TUS,R88533/RE002,A_1,1,2024-07-10_11h25.03.325,None,999,28,f,2.989898681640625,1,9,approach,normal,heart,None,55,20,20,reject,1.5583250999916345,None,0,445,"null",None,None,None
reward-effort-pgACC-TUS,R88533/RE002,A_1,1,2024-07-10_11h25.03.325,None,999,28,f,2.989898681640625,1,10,approach,normal,heart,None,75,60,67,reject,1.4177703999448568,None,0,445,"null",None,None,None
reward-effort-pgACC-TUS,R88533/RE002,A_1,1,2024-07-10_11h25.03.325,None,999,28,f,2.989898681640625,1,11,approach,normal,heart,None,70,60,65,accept,1.2541340000461787,success,65,510,"[1.8576546599573351, 2.1944821532463026, 2.439447602911006, 2.439447602911006, 2.6742061588396804, 2.9702060771845304, 3.2049646331132045, 3.2049646331132045, 3.409102507833791, 3.6030334888183484, 3.8071713635389344, 3.8071713635389344, 4.470619456380839, 5.8689638982168555, 7.318342808733018, 7.318342808733018, 8.767721719249181, 10.768272891510927, 14.00385820583222, 14.00385820583222, 17.800822675635125, 21.026201096220387, 24.11888989823727, 24.11888989823727, 28.90592306043502, 31.141232788625437, 35.703714288630536, 38.286058403845956, 38.286058403845956, 40.674471538076816, 42.99143641615547, 45.61460810631501, 45.61460810631501, 48.66646933338777, 50.57515846202525, 52.606330315495086, 53.463709389321544, 53.463709389321544, 54.31088156941198, 55.28053647433476, 56.59722576628254, 56.59722576628254, 58.27115633899136, 59.03667336919355, 59.781776611923696, 60.84329356047075, 60.84329356047075, 61.955844977697936, 62.6397068580119, 62.71115511416411, 62.71115511416411, 62.170189746154556, 62.027293233850145, 63.01736192624499, 64.29322364324865, 64.29322364324865, 65.88549906606922, 66.90618843967215, 67.59005031998612, 68.2126708378839, 68.2126708378839, 68.58011901238096, 69.78453247323242, 70.31529094750594, 70.31529094750594, 70.67253222826697, 72.41791105712798, 74.17349677972503, 74.17349677972503, 75.09211721596768, 75.50039296540884, 75.45956539046472, 75.45956539046472, 75.68411705265736, 75.51059985914486, 75.81680667122575, 76.3577720392353, 76.3577720392353, 76.6333581701081, 76.64356506384412, 76.6333581701081, 76.62315127637206, 76.62315127637206, 76.65377195758015, 76.66397885131619, 76.69459953252426, 76.66397885131619, 76.66397885131619, 76.88853051350883, 77.14370285690956, 77.52135792514264, 77.79694405601543, 77.79694405601543, 78.20521980545661, 78.08273708062426, 77.70508201239117, 77.67446133118308, 77.67446133118308, 77.76632337480734, 77.79694405601543, 77.97046124952793, 77.97046124952793, 78.1337715493044, 78.16439223051249, 78.14397844304042, 78.12356465556837, 77.85818541843162, 77.85818541843162, 77.77653026854338, 77.77653026854338, 77.83777163095955, 77.83777163095955, 77.92963367458381, 77.9602543557919, 77.99087503699998, 77.99087503699998, 78.09294397436028, 77.98066814326397]",75.81212153967476,1.9650431000627577,None
reward-effort-pgACC-TUS,R88533/RE002,A_1,1,2024-07-10_11h25.03.325,None,999,28,f,2.989898681640625,1,12,approach,normal,heart,None,60,40,42,reject,1.1906523999059573,None,0,510,"null",None,None,None
reward-effort-pgACC-TUS,R88533/RE002,A_1,1,2024-07-10_11h25.03.325,None,999,28,f,2.989898681640625,1,13,approach,normal,heart,None,80,80,98,accept,0.9618958999635652,success,98,608,"[0.32662059955293804, 0.847172180090433, 1.235034142059547, 1.5208271666683677, 1.9699304910536577, 2.2965510906065956, 2.694619946311739, 2.9089647147683544, 3.092688802016882, 3.398895614097762, 3.7255162136506996, 4.286895369132312, 4.286895369132312, 6.287446541394058, 7.838894389270513, 9.10454921253815, 12.35034142059547, 16.269788615230727, 20.179028916129955, 20.179028916129955, 23.537096955283598, 27.95668194298429, 31.25350861972176, 36.806058812121705, 39.6231614832658, 43.33847080318047, 47.75805579088116, 52.8921233401039, 55.015157237198, 58.597776938544285, 60.78205219805457, 62.59887928306779, 65.87529217233319, 65.87529217233319, 67.42674002020965, 68.26370530656405, 68.35556735018832, 67.63087789493024, 66.4672920090229, 66.23253345309422, 66.4672920090229, 67.55942963877803, 68.2126708378839, 68.58011901238096, 68.58011901238096, 69.20273953027875, 69.95804966674491, 71.2032907025405, 72.85680748777725, 75.09211721596768, 75.09211721596768, 76.255703101875, 78.00108193073602, 79.99142620926175, 80.59363293968747, 80.65487430210364, 81.14480520143304, 82.11446010635584, 82.28797729986833, 82.51252896206097, 82.35942555602054, 81.84908086921907, 81.59390852581834, 81.55308095087422, 81.68577056944261, 82.13487389382789, 82.0736325314117, 82.12466700009186, 82.33901176854847, 82.33901176854847, 82.7268737305176, 82.98204607391833, 83.32908046094332, 83.34949424841538, 83.49239076071979, 83.49239076071979, 83.49239076071979, 83.5332183356639, 83.17597705490289, 82.5533565370051, 82.15528768129995, 81.92052912537127, 81.92052912537127, 82.08383942514774, 82.23694283118819, 82.64521858062935, 83.30866667347127, 83.43114939830362, 83.54342522939994, 83.60466659181611, 83.59445969808009, 83.59445969808009, 83.59445969808009, 84.08439059740948, 84.35997672828228, 84.33956294081023, 84.45183877190655, 84.90094209629183, 85.40107988935726, 85.52356261418961, 86.3809416880161, 86.3809416880161, 86.57487266900064, 87.07501046206609]",82.88382879457163,2.0165036000544205,None
reward-effort-pgACC-TUS,R88533/RE002,A_1,1,2024-07-10_11h25.03.325,None,999,28,f,2.989898681640625,1,14,approach,normal,heart,None,90,40,41,reject,1.4999614999396726,None,0,608,"null",None,None,None
reward-effort-pgACC-TUS,R88533/RE002,A_1,1,2024-07-10_11h25.03.325,None,999,28,f,2.989898681640625,1,15,approach,normal,heart,None,65,40,34,reject,1.2369771000230685,None,0,608,"null",None,None,None
reward-effort-pgACC-TUS,R88533/RE002,A_1,1,2024-07-10_11h25.03.325,None,999,28,f,2.989898681640625,1,16,approach,normal,heart,0.5640000000000001,75,40,35,accept,1.7884335999842733,success,35,643,"[2.5517234340073287, 3.388688720361732, 3.388688720361732, 4.348136731548488, 5.889377685688914, 5.889377685688914, 7.471446214773458, 8.410480438488154, 8.910618231553592, 8.910618231553592, 10.257928204709462, 11.217376215896216, 12.860686107396935, 12.860686107396935, 14.463168423953537, 17.331305563777775, 19.597235973176282, 19.597235973176282, 22.64909720024905, 26.823716738285036, 30.53902605819971, 33.427576985496, 33.427576985496, 38.13295499780552, 41.378747205862844, 44.31833260183928, 44.31833260183928, 48.94205546426056, 51.62646851683627, 53.688261051514196, 55.556122605207555, 55.556122605207555, 58.82232860073694, 61.057638328927354, 64.2421891745685, 64.2421891745685, 67.11032631439274, 68.64136037479713, 70.44798056607434, 70.44798056607434, 72.36687658844784, 73.72439345533974, 74.65322078531841, 74.65322078531841, 75.09211721596768, 75.4187378155206, 75.44935849672869, 75.44935849672869, 76.27611688934707, 77.66425443744706, 78.54204729874557, 78.54204729874557, 79.16466781664336, 79.05239198554705, 79.14425402917131, 79.389219478836, 79.389219478836, 79.5933573535566, 79.68521939718084, 80.46094332111909, 80.46094332111909, 80.75694323946394, 80.8488052830882, 80.98149490165657, 80.89983975176834, 80.89983975176834, 80.75694323946394, 80.60383983342349, 80.58342604595143, 80.58342604595143, 80.53239157727128, 80.16494340277424, 80.1853571902463, 80.1853571902463, 80.36908127749483, 80.52218468353526, 79.8689434844294, 79.8689434844294, 79.85873659069335, 79.91997795310954, 80.26701234013453, 80.19556408398232, 80.19556408398232, 80.22618476519041, 80.47115021485511, 80.5732191522154, 80.58342604595143, 80.58342604595143, 79.8791503781654, 79.5627366723485, 79.60356424729262, 79.60356424729262, 80.05266757167792, 79.85873659069335, 79.47087462872425, 79.62397803476468, 79.62397803476468, 79.58315045982056, 79.51170220366835, 79.60356424729262, 80.17515029651027, 80.17515029651027]",79.2255799244229,1.6984006999991834,None
reward-effort-pgACC-TUS,R88533/RE002,A_1,1,2024-07-10_11h25.03.325,None,999,28,f,2.989898681640625,1,17,approach,normal,heart,None,95,80,91,accept,1.1029790999600664,success,91,734,"[1.3575168668918989, 1.9597235973176284, 2.8375164586161494, 3.633654170026436, 3.633654170026436, 5.613791554816123, 7.675584089494045, 9.186204362426382, 13.136272238269727, 13.136272238269727, 17.08634011411307, 21.903993957518907, 26.68082022598063, 31.049370745001177, 38.01047227297317, 42.44026415440989, 42.44026415440989, 47.513090341216454, 52.66757167791126, 54.627295275228896, 58.99584579424943, 61.537362334520736, 61.537362334520736, 63.81349963765527, 66.16108519694201, 67.549222745042, 68.37598113766037, 68.96798097435007, 69.97846345421698, 71.3461872148449, 73.48963489941106, 74.83694487256693, 75.68411705265736, 75.68411705265736, 76.64356506384412, 77.68466822491911, 79.10342645422719, 80.27721923387055, 81.03252937033673, 81.97156359405142, 81.97156359405142, 82.6248047931573, 83.0432874363345, 83.5332183356639, 83.82921825400875, 84.18645953476978, 84.18645953476978, 84.53349392179477, 84.83970073387566, 85.42149367682933, 86.08494176967123, 86.63611403141682, 87.4628724240352, 87.4628724240352, 88.14673430434917, 88.67749277862268, 89.22866504036826, 89.54507874618517, 89.57569942739326, 89.57569942739326, 89.7594235146418, 89.99418207057046, 90.47390607616384, 90.57597501352413, 90.71887152582855, 91.06590591285354, 91.18838863768589, 91.35169893746237, 91.35169893746237, 91.45376787482266, 91.5048023435028, 91.7803884743756, 91.96411256162412, 92.38259520480132, 92.62756065446602, 93.0052157226991, 93.74011207169323, 94.01569820256601, 93.88300858399762, 93.98507752135792, 93.98507752135792, 94.97514621375277, 95.04659446990497, 94.92411174507262, 94.97514621375277, 94.92411174507262, 95.65900809406673, 95.65900809406673, 96.01624937482775, 96.57762853030937, 97.29211109183143, 97.70038684127259, 97.70038684127259, 97.75142130995275, 98.02700744082553, 98.25155910301818, 98.25155910301818, 98.27197289049023, 98.33321425290642, 98.45569697773875, 98.45569697773875, 98.38424872158656, 98.44549008400274, 98.54755902136303, 98.72107621487552, 98.8129382584998, 98.74149000234759, 98.74149000234759, 98.75169689608362, 98.58838659630715, 98.45569697773875, 98.41486940279465, 98.35362804037847, 98.27197289049023, 98.08824880324171, 98.1188694844498]",95.66184334232675,2.1750978000927716,None
reward-effort-pgACC-TUS,R88533/RE002,A_1,1,2024-07-10_11h25.03.325,None,999,28,f,2.989898681640625,1,18,approach,normal,heart,None,65,60,62,reject,1.4150315000442788,None,0,734,"null",None,None,None
reward-effort-pgACC-TUS,R88533/RE002,A_1,1,2024-07-10_11h25.03.325,None,999,28,f,2.989898681640625,1,19,approach,normal,heart,None,85,100,101,accept,1.1846265000058338,success,101,835,"[2.4088269217029183, 2.6435854776315924, 3.358068039153644, 3.643861063762465, 4.460412562644811, 6.665101609627142, 8.073652945199187, 8.971859593969766, 10.880548722607248, 13.860961693527809, 16.565788533575578, 19.05627060516673, 22.822614393761548, 25.33351025282476, 30.008267583926184, 31.631163687954846, 35.29543853918937, 37.9186102293489, 39.61295458952977, 41.705367805415776, 43.2466087595562, 44.91033243852898, 48.00302124054586, 50.023986200279666, 51.54481336694804, 53.34122666448919, 53.99446786359508, 54.86205383115757, 57.29129454033254, 59.58784563093914, 61.04743143519132, 63.17046533228543, 64.762740755106, 65.41598195421187, 66.38563685913465, 67.56963653251405, 68.37598113766037, 68.68218794974126, 69.6008083859839, 70.36632541618609, 71.56053198330153, 74.02039337368458, 75.09211721596768, 75.80659977748971, 76.55170302021985, 77.6132199687669, 78.43997836138527, 79.14425402917131, 80.26701234013453, 81.14480520143304, 82.00218427525951, 82.52273585579701, 83.17597705490289, 83.55363212313597, 84.25790779092199, 84.53349392179477, 85.53376950792565, 86.73818296877711, 86.87087258734549, 87.48328621150725, 87.99363089830872, 88.22838945423739, 88.26921702918152, 88.26921702918152, 88.08549294193298, 88.1263205168771, 88.24880324170945, 88.24880324170945, 88.3712859665418, 88.56521694752637, 88.48356179763812, 88.52438937258225, 88.57542384126239, 88.81018239719106, 88.73873414103886, 88.79997550345503, 89.12659610300797, 89.17763057168811, 89.21845814663224, 89.39197534014474, 89.30011329652046, 88.81018239719106, 87.72825166117195, 86.60549335020873, 85.5848039766058, 85.47252814550947, 85.46232125177345, 85.25818337705286, 85.29901095199698, 85.2683902707889, 85.2683902707889, 85.21735580210874, 85.22756269584477, 85.19694201463669, 84.63556285915507, 84.49266634685067]",86.67867894997559,2.1289239999605343,None
reward-effort-pgACC-TUS,R88533/RE002,A_1,1,2024-07-10_11h25.03.325,None,999,28,f,2.989898681640625,1,20,approach,normal,heart,None,55,100,85,accept,1.4138354000169784,success,85,920,"[0.2653792371367622, 0.6022067304257296, 1.2656548232676348, 2.010758065997775, 3.011033652128648, 4.235860900452165, 6.420136159962439, 8.604411419472711, 10.370204035805783, 12.850479213660906, 16.331029977646903, 18.719443111877762, 20.913925265124064, 23.863717554836537, 27.06868218794974, 30.191991671174712, 32.88661161748645, 36.93874843069009, 38.89847202800772, 41.97074704255254, 44.144815408326785, 46.99253876067896, 49.36053810743776, 51.11612383003481, 53.208537045920814, 54.03529543853919, 55.00495034346198, 57.53625998999724, 59.230604350178105, 60.873914241678825, 61.812948465393525, 62.53763792065161, 62.77239647658028, 64.71170628642585, 66.37542996539864, 66.8143263960479, 66.52853337143907, 67.31446418911334, 67.99832606942729, 68.00853296316332, 68.04936053810744, 68.15142947546772, 68.11060190052362, 68.27391220030007, 68.23308462535597, 68.36577424392435, 68.243291519092, 68.03915364437141, 68.0697743255795, 67.86563645085891, 67.4471538076817, 67.23280903922509, 67.22260214548906, 67.18177457054495, 67.18177457054495, 67.19198146428097, 67.29405040164127, 67.41653312647362, 67.21239525175304, 67.41653312647362, 67.47777448888979, 67.50839517009788, 67.28384350790523, 67.202188358017, 67.83501576965082, 67.9677053882192, 67.81460198217877, 67.86563645085891, 67.67170546987435, 67.41653312647362, 67.07970563318464, 67.08991252692068]",65.81617724611203,1.5630178999854252,None
reward-effort-pgACC-TUS,R88533/RE002,A_1,1,2024-07-10_11h25.03.325,None,999,28,f,2.989898681640625,1,21,approach,normal,heart,None,90,20,20,reject,1.0931062999879941,None,0,920,"null",None,None,None
reward-effort-pgACC-TUS,R88533/RE002,A_1,1,2024-07-10_11h25.03.325,None,999,28,f,2.989898681640625,1,22,approach,normal,heart,None,65,100,98,accept,1.2655390000436455,success,98,1018,"[2.6537923713676217, 3.776550682330846, 3.776550682330846, 5.858757004480827, 7.920549539158747, 8.716687250569034, 9.859859349004317, 11.717514008961654, 13.626203137599136, 15.565512947444704, 17.678339950802773, 19.372684310983637, 22.06730425729538, 23.99640717340492, 26.711440907188717, 29.58978494074898, 31.21268104477764, 33.78481826625703, 36.88771396200995, 38.62288589713492, 40.16412685127535, 40.16412685127535, 42.29736764210548, 43.70591897767752, 44.940953119737074, 48.13571085911425, 49.42177946985394, 50.60577914323334, 51.902054647709065, 52.98398538372817, 53.167709470976696, 53.57598522041786, 54.16798505710757, 55.607157073887706, 58.79170791952885, 60.62894879201413, 62.282465577250875, 64.74232696763394, 66.69184367121554, 67.14094699560083, 67.52880895756994, 68.23308462535597, 68.56991211864494, 68.80467067457361, 69.34563604258315, 69.58039459851183, 69.66204974840007, 69.82536004817655, 70.13156686025742, 71.26453206495668, 71.63198023945372, 71.47887683341328, 71.77487675175813, 71.81570432670226, 71.84632500791034, 71.88715258285447, 72.20356628867137, 72.43832484460005, 72.1423249262552, 71.99942841395078, 72.36687658844784, 71.97901462647872, 71.30535963990079, 71.76466985802212, 71.88715258285447, 71.78508364549417, 71.35639410858093, 71.7952905392302, 72.2137731824074, 72.20356628867137, 71.96880773274269, 71.96880773274269, 71.95860083900666, 71.88715258285447, 70.97873904034785, 70.79501495309933, 70.82563563430742, 70.79501495309933, 70.19280822267359, 70.19280822267359, 70.37653230992213, 70.58067018464271, 70.73377359068314, 71.33598032110888, 71.33598032110888, 71.98922152021476]",70.59189776775233,1.7844899999909103,None
reward-effort-pgACC-TUS,R88533/RE002,A_1,1,2024-07-10_11h25.03.325,None,999,28,f,2.989898681640625,1,23,approach,normal,heart,None,55,20,21,reject,1.1864469000138342,None,0,1018,"null",None,None,None
reward-effort-pgACC-TUS,R88533/RE002,A_1,1,2024-07-10_11h25.03.325,None,999,28,f,2.989898681640625,1,24,approach,normal,heart,None,85,80,72,accept,1.1387301000067964,success,72,1090,"[-0.4082757494411725, -0.3980688557051432, -0.3674481744970553, -0.37765506823308465, -0.37765506823308465, -0.37765506823308465, -0.37765506823308465, -0.37765506823308465, -0.3368274932889674, -0.2653792371367622, -0.19393098098455697, 0.030620681208087943, 0.4491033243852898, 1.6739305727088076, 3.2355853143212925, 5.317791636471273, 5.317791636471273, 8.206342563767569, 10.900962510079308, 14.034478887040308, 17.341512457513804, 17.341512457513804, 21.005787308748328, 24.159717473181384, 27.966888836720322, 30.896267338960737, 33.48881834791218, 33.48881834791218, 37.02040358057832, 38.357506659998165, 39.65378216447388, 40.91943698774152, 40.91943698774152, 41.65433333673563, 42.37902279199371, 43.37929837812459, 44.757229032488546, 46.59446990497382, 48.63584865217968, 50.56495156828922, 50.56495156828922, 53.06564053361641, 54.08632990721933, 55.58674328641564, 58.31198391393547, 58.31198391393547, 60.802465985526624, 62.08853459626632, 63.803292743919236, 66.39584375287069, 67.35529176405744, 67.35529176405744, 67.82480887591478, 68.42701560634052, 69.13129127412655, 70.21322201014564, 71.19308380880447, 72.09129045757504, 72.09129045757504, 73.85708307390811, 75.26563440948017, 76.61294438263603, 77.8888060996397, 77.8888060996397, 78.90949547324263, 79.79749522827719, 80.23639165892644, 80.8488052830882, 81.02232247660069, 81.02232247660069, 81.00190868912863, 80.99170179539261, 80.94066732671246, 80.8181846018801, 80.8181846018801, 80.5732191522154, 80.59363293968747, 80.58342604595143, 80.88963285803231, 80.88963285803231, 81.60411541955438, 82.39004623722862, 82.68604615557348, 83.0126667551264, 83.35970114215141, 83.47197697324773, 83.50259765445583, 83.50259765445583, 83.62508037928818, 84.53349392179477, 84.77845937145948, 85.37045920814919, 86.28907964439182, 86.9423208434977, 86.9423208434977, 87.73845855490798, 88.24880324170945, 88.63666520367856, 88.77956171598298, 89.01432027191166, 89.08576852806385, 89.02452716564768, 89.02452716564768, 89.11638920927194, 89.1061823155359, 88.94287201575945, 88.88163065334327, 89.04494095311973, 89.39197534014474, 89.40218223388077, 89.40218223388077, 89.40218223388077, 89.37156155267267, 89.3817684464087, 89.2082512528962, 89.14700989048004, 89.02452716564768, 88.59583762873444, 88.59583762873444, 88.60604452247047, 88.63666520367856, 88.61625141620651, 88.66728588488665, 88.789768609719, 88.789768609719, 88.789768609719, 88.73873414103886, 88.74894103477489, 88.76935482224695, 88.76935482224695, 88.81018239719106, 88.91225133455136, 88.8918375470793, 88.87142375960724, 88.71832035356681]",87.35937094018563,2.428369399975054,None
reward-effort-pgACC-TUS,R88533/RE002,A_1,1,2024-07-10_11h25.03.325,None,999,28,f,2.989898681640625,1,25,approach,normal,heart,0.38,55,40,39,reject,1.0102926000254229,None,0,1090,"null",None,None,None
reward-effort-pgACC-TUS,R88533/RE002,A_1,1,2024-07-10_11h25.03.325,None,999,28,f,2.989898681640625,1,26,approach,normal,heart,None,50,20,18,reject,0.9319787001004443,None,0,1090,"null",None,None,None
reward-effort-pgACC-TUS,R88533/RE002,A_1,1,2024-07-10_11h25.03.325,None,999,28,f,2.989898681640625,1,27,approach,normal,heart,None,75,100,104,accept,1.441368700005114,success,104,1194,"[-0.5001377930654364, -0.4695171118573485, -0.4797240055933778, -0.4899308993294071, -0.4491033243852898, -0.38786196196911393, -0.1428965123044104, 0.357241280761026, 1.1125514172271953, 2.3169648780786543, 3.541792126402172, 6.3691016912822915, 8.62482520694477, 12.62592755146826, 17.004684964224836, 17.004684964224836, 20.168822022393925, 24.38426913537403, 28.834474804282813, 31.039163851265144, 35.64247292621437, 37.85736886693273, 40.8071611566452, 43.348677696916496, 44.98178069468119, 48.41129698998704, 50.19750339379216, 51.595847835628184, 53.06564053361641, 53.94343339491493, 55.1172261745583, 58.15888050789503, 59.730742143243546, 60.37377644861339, 61.159707266287654, 61.772120890449415, 62.894879201412635, 64.33405121819277, 65.48743021036408, 65.63032672266849, 66.44687822155083, 67.11032631439274, 67.57984342625008, 68.45763628754861, 68.84549824951772, 69.50894634235964, 70.02949792289712, 70.86646320925153, 71.94839394527064, 72.23418696987946, 72.50977310075226, 72.88742816898534, 73.122186724914, 73.70397966786769, 74.41846222938973, 74.41846222938973, 75.2452206220081, 75.92908250232206, 77.13349596317353, 77.78673716227941, 79.01156441060292, 79.9812193155257, 80.61404672715953, 80.85901217682422, 81.39997754483377, 81.92052912537127, 82.12466700009186, 82.0736325314117, 82.57377032447715, 82.74728751798965, 82.87997713655804, 82.80852888040583, 83.12494258622274, 83.25763220479112, 83.17597705490289, 83.33928735467934, 83.32908046094332, 83.34949424841538, 83.30866667347127, 83.10452879875068, 82.91059781776612, 82.44108070590877, 82.06342563767569, 81.42039133230584, 80.56301225847938, 79.93018484684556, 79.79749522827719, 79.68521939718084, 79.61377114102865, 79.6341849285007, 79.61377114102865, 79.3483919038919, 79.39942637257204, 79.5933573535566, 79.61377114102865, 79.58315045982056, 79.5627366723485]",79.61418774893626,2.032615299918689,None
reward-effort-pgACC-TUS,R88533/RE002,A_1,1,2024-07-10_11h25.03.325,None,999,28,f,2.989898681640625,1,28,approach,normal,heart,None,75,80,86,accept,0.991420799982734,success,86,1280,"[-0.43889643064926054, -0.37765506823308465, -0.37765506823308465, -0.4184826431772019, -0.37765506823308465, -0.38786196196911393, -0.3674481744970553, -0.37765506823308465, -0.37765506823308465, -0.3674481744970553, -0.3062068120808794, 0.3164137058169087, 0.3164137058169087, 1.6637236789727783, 3.153930164433058, 4.807446949669807, 7.59392893960581, 9.288273299786676, 13.462892837822665, 13.462892837822665, 17.137374582793218, 20.066753085033632, 23.281924611882864, 27.987302624192377, 27.987302624192377, 30.96771559511294, 34.73405938370775, 37.87778265440478, 41.02150592510181, 43.57322935910914, 43.57322935910914, 46.227021730476764, 48.91143478305247, 50.707848080593635, 52.116399416165684, 52.8206750839517, 53.47391628305758, 53.47391628305758, 54.106743694691396, 56.34205342288181, 59.45515601237076, 61.27198309738397, 63.77267206271115, 66.49791269023099, 66.49791269023099, 68.00853296316332, 68.81487756830964, 70.09073928531329, 71.85653190164636, 73.13239361865004, 73.13239361865004, 74.4082553356537, 75.46977228420076, 76.92935808845294, 77.95004746205588, 77.95004746205588, 78.67473691731396, 79.0728057730191, 79.67501250344483, 80.50177089606319, 80.95087422044848, 80.95087422044848, 81.53266716340217, 81.62452920702643, 81.82866708174701, 81.82866708174701, 82.26756351239626, 82.13487389382789, 82.16549457503598, 82.16549457503598, 82.28797729986833, 82.51252896206097, 82.73708062425362, 82.73708062425362, 82.95142539271023, 82.95142539271023, 82.83914956161391, 82.81873577414186, 83.02287364886244, 83.19639084237494, 83.29845977973524, 83.29845977973524, 83.36990803588745, 83.40052871709553, 83.64549416676023, 83.81901136027274, 83.87004582895288, 83.87004582895288, 84.43142498443449, 84.5028732405867, 84.41101119696242, 84.54370081553081, 84.54370081553081, 84.55390770926684, 84.55390770926684, 84.45183877190655, 83.88025272268891, 83.81901136027274, 83.77818378532861, 83.49239076071979, 83.38011492962347, 83.38011492962347, 83.4617700795117, 83.4617700795117, 83.51280454819184, 83.65570106049626]",81.80420573296583,1.8843568000011146,None
reward-effort-pgACC-TUS,R88533/RE002,A_1,1,2024-07-10_11h25.03.325,None,999,28,f,2.989898681640625,1,29,approach,normal,heart,None,65,60,60,accept,0.984503399929963,success,60,1340,"[0.683861880313964, 1.5820685290845435, 2.3577924530227716, 2.3577924530227716, 3.990895450787462, 7.114204934012432, 7.114204934012432, 9.21682504363447, 14.330478805385157, 18.72965000561379, 18.72965000561379, 23.036959162218164, 27.191164912782096, 31.365784450818087, 36.62233472487318, 39.51088565216948, 39.51088565216948, 42.695436497810626, 45.91060802465986, 49.350331213701736, 49.350331213701736, 52.085778734957586, 53.61681279536199, 54.9437089810458, 54.9437089810458, 57.17901870923622, 59.444949118634725, 61.139293478815596, 62.700948220428074, 62.700948220428074, 65.55887846651629, 68.30453288150818, 69.69267042960816, 69.69267042960816, 71.55032508956549, 73.27529013095445, 74.0612209486287, 74.0612209486287, 74.48991048554193, 75.21459994080001, 75.8372204586978, 76.49046165780368, 77.21515111306176, 77.21515111306176, 77.67446133118308, 78.25625427413675, 78.25625427413675, 78.83804721709042, 79.03197819807498, 79.389219478836, 79.389219478836, 80.14452961530218, 80.55280536474335, 80.40990885243893, 80.40990885243893, 80.21597787145438, 79.71584007838895, 79.736253865861, 80.03225378420585, 80.03225378420585, 79.8791503781654, 79.6341849285007, 79.64439182223674, 79.64439182223674, 79.71584007838895, 79.48108152246027, 79.4912884161963, 79.4606677349882, 79.4606677349882, 79.18508160411541, 78.90949547324263, 78.16439223051249, 78.16439223051249, 77.97046124952793, 77.92963367458381, 77.87859920590367, 78.00108193073602, 78.00108193073602, 77.65404754371103, 77.48053035019853, 77.52135792514264, 77.50094413767059, 77.50094413767059, 77.5417717126147, 77.57239239382278, 77.56218550008676, 77.56218550008676, 77.50094413767059, 77.33763383789412, 76.86811672603676]",76.9413758826905,1.4963264000834897,None
reward-effort-pgACC-TUS,R88533/RE002,A_1,1,2024-07-10_11h25.03.325,None,999,28,f,2.989898681640625,1,30,approach,normal,heart,0.788,95,100,91,accept,1.1419367999769747,success,91,1431,"[1.1227583109632244, 1.6126892102926318, 2.265930409398508, 2.82730956488012, 3.6540679574984947, 6.144550029089648, 7.951170220366836, 9.175997468690353, 12.21765180202709, 14.493789105161625, 18.454063874741, 21.495718208077736, 24.83337245975932, 30.028681371398243, 32.427301399365135, 37.05102426178641, 37.05102426178641, 42.9301950537393, 42.9301950537393, 44.6041256264481, 46.96191807947088, 48.93184857052454, 50.871158380370105, 53.19833015218478, 54.79060557500536, 58.036397783062675, 60.74122462311045, 63.61956865667071, 66.35501617792657, 68.15142947546772, 68.63115348106112, 69.07004991171037, 69.89680830432874, 70.335704734978, 70.09073928531329, 69.4272911924714, 69.13129127412655, 68.63115348106112, 68.49846386249273, 68.67198105600522, 69.96825656048095, 71.25432517122064, 72.37708348218386, 73.04053157502577, 73.79584171149193, 74.19391056719708, 74.88797934124707, 75.40853092178457, 75.7657722025456, 76.0413583334184, 76.49046165780368, 76.74563400120441, 77.21515111306176, 77.70508201239117, 77.70508201239117, 78.04190950568014, 78.32770253028896, 78.71556449225807, 78.81763342961835, 78.80742653588233, 79.20549539158748, 79.3483919038919, 79.4912884161963, 79.6648056097088, 79.5933573535566, 79.62397803476468, 79.91997795310954, 80.06287446541394, 80.22618476519041, 80.40990885243893, 80.6752880895757, 80.70590877078378, 80.55280536474335, 80.30783991507865, 80.36908127749483, 80.56301225847938, 80.82839149561613, 80.83859838935217, 80.97128800792055, 81.08356383901688, 81.25708103252937, 81.58370163208231, 81.5122533759301, 81.25708103252937, 81.13459830769702, 80.89983975176834, 80.82839149561613, 80.82839149561613, 80.56301225847938, 80.35887438375879, 80.68549498331173, 80.94066732671246, 81.17542588264114, 81.97156359405142, 82.43087381217275, 82.57377032447715, 82.80852888040583, 83.21680462984699, 83.34949424841538, 83.52301144192788, 83.60466659181611, 83.88025272268891, 84.48245945311463, 85.28880405826095, 86.01349351351904, 86.40135547548815, 87.07501046206609, 87.48328621150725, 87.67721719249181, 87.68742408622784, 87.77928612985211, 88.11611362314108, 88.17735498555724, 88.23859634797341, 88.34066528533371, 88.43252732895797, 88.45294111643004, 88.55501005379033, 88.57542384126239, 88.59583762873444, 88.99390648443959, 89.35114776520061, 89.54507874618517, 89.66756147101752, 89.82066487705796, 90.06563032672267, 90.38204403253958, 90.45349228869178, 90.48411296989987, 90.51473365110796, 90.38204403253958, 90.03500964551459, 90.01459585804253, 90.43307850121973, 90.45349228869178, 90.67804395088443, 91.04549212538147, 91.37211272493442, 91.56604370591897, 91.72935400569546, 92.07638839272045, 92.30094005491308, 92.5867330795219, 93.53597419697263, 94.33211190838293, 94.85266348892041, 95.24052545088954, 95.71004256274688, 96.08769763097996, 96.43473201800496, 96.6592836801976, 96.63886989272554, 96.74093883008584, 97.22066283567922, 97.57790411644024, 97.71059373500862, 97.67997305380054, 97.70038684127259, 97.86369714104907, 98.06783501576966, 98.19031774060201, 98.24135220928216, 98.22093842181009, 98.27197289049023, 98.02700744082553, 97.70038684127259, 96.88383534239024, 95.77128392516305, 94.73018076408806, 94.73018076408806, 93.71969828422117, 93.35225010972411, 92.84190542292265, 92.49487103589765, 92.40300899227339, 92.12742286140059, 92.39280209853735, 92.39280209853735, 92.53569861084176, 92.50507792963367, 92.0661814989844, 91.59666438712706]",94.6018655285494,3.8313111999304965,None
reward-effort-pgACC-TUS,R88533/RE002,A_1,1,2024-07-10_11h25.03.325,None,999,28,f,2.989898681640625,1,31,approach,normal,heart,None,90,100,98,accept,1.2378036000300199,success,98,1529,"[1.6637236789727783, 1.7759995100691008, 2.4598613903830646, 2.5108958590632113, 2.4802751778551233, 2.439447602911006, 2.388413134230859, 2.265930409398508, 2.4598613903830646, 2.898757821032325, 2.898757821032325, 3.4703438702499665, 5.021791718126423, 7.981790901574924, 9.594480111867556, 12.370755208067528, 16.892409133128513, 19.69930491053658, 22.659304093985078, 26.62978575730048, 30.365508864687207, 32.72330131770998, 36.550886468720975, 38.64329968460699, 40.276402682371675, 44.05295336470252, 45.451297806538534, 49.03391750788483, 51.452951323323774, 53.55557143294581, 55.107019280822264, 58.38343217008768, 60.60853500454206, 62.00687944637808, 64.15032713094423, 65.42618884794791, 66.20191277188613, 67.28384350790523, 67.52880895756994, 67.9677053882192, 68.39639492513243, 68.63115348106112, 68.77404999336551, 68.96798097435007, 69.0088085492942, 69.23336021148684, 69.09046369918242, 69.21294642401477, 70.14177375399345, 71.6217733457177, 72.45873863207211, 73.65294519918754, 75.30646198442427, 76.17404795198676, 77.73570269359926, 78.90949547324263, 79.74646075959703, 81.04273626407276, 81.88990844416318, 82.60439100568524, 82.98204607391833, 83.20659773611096, 84.37018362201832, 84.90094209629183, 85.47252814550947, 86.59528645647269, 86.88107948108153, 87.12604493074623, 87.59556204260358, 87.75887234238004, 88.21818256050136, 88.76935482224695, 89.15721678421606, 89.5552856399212, 89.79004419584987, 90.34121645759546, 90.29018198891531, 90.29018198891531, 90.29018198891531, 90.38204403253958, 90.7392853133006, 90.79031978198076, 90.81073356945281, 90.81073356945281, 90.75969910077266, 90.71887152582855, 90.88218182560502, 91.16797485021384, 91.2598368938381, 91.30066446878222, 91.37211272493442, 91.33128514999031, 91.34149204372633, 91.35169893746237, 91.28025068131016, 91.38231961867045, 91.71914711195942, 92.00494013656824, 92.00494013656824, 92.53569861084176, 92.60714686699397, 92.98480193522705, 94.08714645871822, 94.13818092739837, 95.12824961979321, 95.92438733120349, 96.1693527808682, 96.1693527808682, 96.53680095536525, 96.77155951129393, 96.94507670480643, 96.92466291733437, 96.99611117348658]",91.66641149432326,2.4512090999633074,None
reward-effort-pgACC-TUS,R88533/RE002,A_1,1,2024-07-10_11h25.03.325,None,999,28,f,2.989898681640625,1,32,approach,normal,heart,None,65,20,19,reject,1.0921319000190124,None,0,1529,"null",None,None,None
reward-effort-pgACC-TUS,R88533/RE002,A_1,1,2024-07-10_11h25.03.325,None,999,28,f,2.989898681640625,1,33,approach,normal,heart,None,75,60,67,reject,0.8888994000153616,None,0,1529,"null",None,None,None
reward-effort-pgACC-TUS,R88533/RE002,A_1,1,2024-07-10_11h25.03.325,None,999,28,f,2.989898681640625,1,34,approach,normal,heart,None,90,100,114,accept,1.1337916000047699,success,114,1643,"[-0.4491033243852898, -0.4082757494411725, -0.3470343870249967, -0.2755861308727915, -0.25517234340073286, -0.2755861308727915, -0.18372408724852765, -0.030620681208087943, 0.38786196196911393, 1.010482479866902, 1.2248272483235176, 1.6841374664448368, 2.8171026711440907, 4.1950333255080485, 6.950894634235963, 8.95144580649771, 11.513376134241067, 11.513376134241067, 15.116409623059415, 19.05627060516673, 21.638614720382147, 24.312820879221828, 28.017923305400465, 30.53902605819971, 32.13130148102028, 35.71392118236657, 37.44909311749156, 38.83723066559154, 40.654057750604764, 42.67502271033856, 44.33874638931134, 47.88053851571351, 50.34039990609658, 52.65736478417523, 52.65736478417523, 54.290467781939924, 56.43391546650608, 58.781501025792814, 58.99584579424943, 59.220397456442086, 60.03694895532442, 61.16991416002367, 61.27198309738397, 61.32301756606412, 62.894879201412635, 64.43612015555306, 64.92605105488248, 65.24246476069938, 67.42674002020965, 68.32494666898022, 68.35556735018832, 68.47805007502068, 68.7332224184214, 69.1823257428067, 68.97818786808611, 69.68246353587213, 70.18260132893757, 70.34591162871403, 71.30535963990079, 72.2852214385596, 74.38784154818164, 74.95942759739928, 76.15363416451471, 77.86839231216763, 78.85846100456249, 79.78728833454115, 79.94039174058159, 80.430322639911, 80.45073642738305, 81.17542588264114, 81.90011533789921, 82.23694283118819, 82.6248047931573, 82.75749441172569, 82.99225296765435, 83.40052871709553, 83.81901136027274, 84.84990762761169, 85.29901095199698, 86.06452798219918, 86.09514866340726, 86.1053555571433, 85.76852806385433, 84.61514907168302, 83.92108029763303, 83.93128719136905, 84.16604574729773, 84.34976983454625, 84.29873536586611, 84.27832157839404, 84.53349392179477, 84.93156277749992, 86.39114858175212, 87.48328621150725, 88.16714809182122, 88.66728588488665, 89.41238912761679, 89.83087177079399, 90.38204403253958, 90.94342318802119, 91.10673348779765, 91.27004378757412, 91.5354230247109, 91.57625059965501, 91.79059536811162, 91.41294029987854, 90.5657681197881, 90.5657681197881, 90.08604411419473, 89.95335449562634, 89.84107866453003, 89.71859593969768, 89.89211313321017, 89.95335449562634, 90.50452675737193, 90.76990599450869, 91.13735416900575, 91.37211272493442, 91.34149204372633, 91.7497677931675, 91.7497677931675, 92.26011247996897, 92.61735376073, 92.83169852918661, 93.20935359741969, 93.76052585916528, 94.25045675849468, 95.11804272605718, 95.35280128198586, 95.38342196319394, 95.92438733120349, 96.12852520592408, 96.22038724954834, 96.91445602359833, 97.31252487930348, 97.43500760413583, 97.49624896655202, 97.58811101017628, 97.73100752248068, 97.7718350974248, 97.5268696477601]",92.48987174100651,2.954917800030671,None
reward-effort-pgACC-TUS,R88533/RE002,A_1,1,2024-07-10_11h25.03.325,None,999,28,f,2.989898681640625,1,35,approach,normal,heart,None,85,80,82,accept,1.3517935000127181,success,82,1725,"[1.9597235973176284, 2.092413215886009, 2.2761373031345373, 2.694619946311739, 3.4601369765139376, 4.450205668908781, 7.318342808733018, 8.583997632000653, 10.012962755044757, 10.012962755044757, 12.238065589499147, 14.391720167801333, 17.08634011411307, 20.025925510089515, 22.64909720024905, 25.364130934032847, 29.528543578332805, 32.11088769354822, 37.347024180131264, 37.347024180131264, 40.062057913915055, 43.14453982219591, 47.64577995978484, 50.207710287528194, 52.8206750839517, 54.5966745940208, 54.5966745940208, 58.73046655711267, 60.81267287926265, 62.50701723944352, 64.71170628642585, 66.26315413430231, 67.29405040164127, 68.22287773161993, 68.22287773161993, 68.56991211864494, 69.6008083859839, 70.81542874057138, 71.95860083900666, 73.27529013095445, 73.27529013095445, 74.42866912312576, 75.44935849672869, 76.57211680769191, 77.1947373255897, 77.1947373255897, 77.64384064997499, 78.57266797995366, 78.86866789829851, 79.4198401600441, 79.4198401600441, 79.6648056097088, 80.09349514662203, 80.66508119583968, 81.12439141396099, 81.12439141396099, 82.01239116899553, 82.7268737305176, 83.0126667551264, 83.38011492962347, 83.38011492962347, 83.49239076071979, 83.64549416676023, 83.85983893521684, 83.85983893521684, 83.96190787257713, 84.83970073387566, 85.52356261418961, 86.2074244945036, 86.0747348759352, 86.47280373164034, 86.47280373164034, 86.46259683790431, 86.53404509405652, 87.3608034866749, 88.25901013544548, 88.3712859665418, 88.70811345983077, 88.70811345983077, 88.74894103477489, 88.77956171598298, 89.32052708399253, 89.51445806497709, 89.68797525848959, 89.68797525848959, 89.92273381441825, 90.31059577638737, 90.08604411419473, 90.46369918242782, 90.46369918242782, 90.52494054484399, 90.5963888009962, 90.5963888009962, 90.5963888009962, 90.5963888009962, 90.74949220703662, 90.69845773835648, 90.69845773835648, 90.46369918242782, 90.33100956385944, 90.0758372204587, 89.96356138936238, 89.96356138936238, 89.97376828309841, 89.93294070815429, 89.94314760189032, 90.02480275177855, 89.98397517683443, 89.98397517683443, 89.92273381441825, 89.95335449562634]",87.86201568960726,2.0128837999654934,None
reward-effort-pgACC-TUS,R88533/RE002,A_1,1,2024-07-10_11h25.03.325,None,999,28,f,2.989898681640625,1,36,approach,normal,heart,0.72,95,40,34,reject,1.3700749001000077,None,0,1725,"null",None,None,None
reward-effort-pgACC-TUS,R88533/RE002,A_1,1,2024-07-10_11h25.03.325,None,999,28,f,2.989898681640625,1,37,approach,normal,heart,None,80,40,43,reject,1.3666393000166863,None,0,1725,"null",None,None,None
reward-effort-pgACC-TUS,R88533/RE002,A_1,1,2024-07-10_11h25.03.325,None,999,28,f,2.989898681640625,1,38,approach,normal,heart,None,55,80,91,accept,1.207753200083971,success,91,1816,"[0.6226205178977882, 1.3779306543639573, 1.816827085013218, 2.2965510906065956, 3.0008267583926185, 3.674481744970553, 3.674481744970553, 5.1953089116389215, 7.491860002245517, 8.655445888152858, 10.860134935135191, 13.483306625294725, 16.310616190174844, 18.89296030539026, 18.89296030539026, 20.638339134251275, 22.47558000673655, 23.731027936268156, 25.547855021281375, 27.436130362446796, 29.82454349667766, 31.049370745001177, 33.243852898247475, 36.78564502464965, 37.8471619731967, 37.8471619731967, 39.53129943964153, 41.85847121145622, 43.37929837812459, 44.46122911414369, 47.02315944188705, 47.02315944188705, 48.901227889316445, 50.442468843456865, 51.3917099609076, 52.68798546538333, 53.47391628305758, 53.892398926234776, 54.525226337868595, 55.14784685576638, 56.056260398273, 56.52577751013034, 56.52577751013034, 58.11805293295092, 59.230604350178105, 60.03694895532442, 60.70039704816633, 61.670051953089114, 63.313361844589835, 63.313361844589835, 64.78315454257806, 65.36494748553173, 65.32411991058761, 65.41598195421187, 65.41598195421187, 65.22205097322733, 65.55887846651629, 66.47749890275892, 66.40605064660672, 65.34453369805966, 65.34453369805966, 64.92605105488248, 65.04853377971483, 65.18122339828321, 65.09956824839497, 65.30370612311556, 65.39556816673982, 65.38536127300378, 65.38536127300378, 65.40577506047585, 65.40577506047585, 65.38536127300378, 64.90563726741041, 64.63005113653762, 65.04853377971483, 65.05874067345084, 65.05874067345084, 65.79363702244495, 66.49791269023099, 66.54894715891113, 66.91639533340819, 67.07970563318464, 66.7122574586876, 66.56936094638318, 66.24274034683026, 64.96687862982658, 64.21156849336042, 63.54812040051851, 63.0581895011891, 63.0581895011891]",63.267338032834644,1.6799282000865787,None
reward-effort-pgACC-TUS,R88533/RE002,A_1,1,2024-07-10_11h25.03.325,None,999,28,f,2.989898681640625,1,39,approach,normal,heart,None,55,40,36,reject,1.7776663999538869,None,0,1816,"null",None,None,None
reward-effort-pgACC-TUS,R88533/RE002,A_1,1,2024-07-10_11h25.03.325,None,999,28,f,2.989898681640625,1,40,approach,normal,heart,None,60,40,40,reject,1.162306800018996,None,0,1816,"null",None,None,None
reward-effort-pgACC-TUS,R88533/RE002,A_1,1,2024-07-10_11h25.03.325,None,999,28,f,2.989898681640625,1,41,approach,normal,heart,None,50,40,32,accept,1.455290999962017,success,32,1848,"[-0.5103446868014657, -0.5103446868014657, -0.5001377930654364, -0.17351719351249836, 0.4286895369132312, 0.4286895369132312, 1.367723760627928, 2.6537923713676217, 4.1950333255080485, 4.1950333255080485, 7.74703234564625, 9.247445724842558, 11.258203790840334, 11.258203790840334, 14.544823573841773, 17.219029732681452, 19.188960223735112, 19.188960223735112, 21.903993957518907, 24.027027854613006, 27.95668194298429, 27.95668194298429, 30.11033652128648, 31.26371551345779, 33.02950812979086, 35.468955732701865, 35.468955732701865, 37.112265624202585, 38.12274810406949, 39.42923050228124, 39.42923050228124, 40.77654047543711, 42.246333173425334, 43.5936431465812, 44.71640145754442, 44.71640145754442, 45.91060802465986, 47.635573066048806, 48.72771069580394, 48.72771069580394, 49.88108968797526, 50.53433088708113, 51.3917099609076, 51.3917099609076, 51.79998571034877, 51.830606391556856, 51.942882222653175, 52.300123503414206, 52.300123503414206, 52.65736478417523, 52.86150265889582, 53.17791636471273, 53.17791636471273, 53.18812325844876, 53.18812325844876, 53.37184734569729, 53.545364539209785, 53.545364539209785, 53.759709307666405, 53.892398926234776, 53.86177824502669, 53.61681279536199, 53.61681279536199, 53.63722658283404, 53.85157135129066, 53.892398926234776, 53.892398926234776, 53.8311575638186, 53.963847182386985, 53.963847182386985, 53.892398926234776, 53.892398926234776, 53.871985138762724, 53.871985138762724, 53.871985138762724, 53.871985138762724, 53.769916201402424, 53.72908862645831, 53.72908862645831, 53.71888173272228, 53.71888173272228, 53.759709307666405, 53.912812713706835, 54.04550233227522, 54.04550233227522, 54.01488165106713, 53.984260969859044, 54.18839884457963, 54.24964020699581, 54.24964020699581, 54.28026088820389, 54.61708838149286, 54.994743449725945, 55.03557102467006, 55.03557102467006, 54.8416400436855, 54.95391587478182, 55.066191705878154, 55.066191705878154]",53.31027672864446,1.6483116999734193,None
reward-effort-pgACC-TUS,R88533/RE002,A_1,1,2024-07-10_11h25.03.325,None,999,28,f,2.989898681640625,1,42,approach,normal,heart,None,50,40,41,reject,1.001078800065443,None,0,1848,"null",None,None,None
reward-effort-pgACC-TUS,R88533/RE002,A_1,1,2024-07-10_11h25.03.325,None,999,28,f,2.989898681640625,1,43,approach,normal,heart,None,70,80,94,accept,1.2545637000584975,success,94,1942,"[-0.520551580537495, -0.4899308993294071, -0.4797240055933778, -0.4797240055933778, -0.4286895369132312, -0.3164137058169087, 0.0714482561522052, 0.0714482561522052, 1.367723760627928, 2.9497922897124718, 3.796964469802905, 7.114204934012432, 9.471997387035204, 13.707858287487367, 13.707858287487367, 18.58675349330938, 22.60826962530493, 28.293509436273258, 31.28412930092985, 31.28412930092985, 35.43833505149378, 38.051299847917285, 40.59281638818859, 44.29791881436722, 48.646055545915715, 48.646055545915715, 52.606330315495086, 54.61708838149286, 58.68963898216856, 62.62949996427587, 65.75280944750084, 68.27391220030007, 68.27391220030007, 71.2032907025405, 74.18370367346105, 76.06177212089045, 78.59308176742572, 80.48135710859114, 82.31859798107642, 83.26783909852715, 83.26783909852715, 83.72714931664846, 83.76797689159258, 83.67611484796832, 83.72714931664846, 84.58452839047493, 84.5743214967389, 83.78839067906463, 83.78839067906463, 83.39032182335949, 83.19639084237494, 82.87997713655804, 82.51252896206097, 82.39004623722862, 82.23694283118819, 81.28770171373746, 81.28770171373746, 80.70590877078378, 80.05266757167792, 79.70563318465291, 79.02177130433896, 78.50121972380146, 78.50121972380146, 78.4808059363294, 78.49101283006542, 77.93984056831984, 77.93984056831984, 76.75584089494045, 75.80659977748971, 75.47997917793677, 75.81680667122575, 75.8372204586978, 75.73515152133751, 75.73515152133751, 75.94949628979413, 76.57211680769191, 76.69459953252426, 76.54149612648384, 76.5006685515397, 76.5006685515397, 76.51087544527574, 76.38839272044339, 76.1842548457228, 76.1842548457228, 75.3472895593684, 75.3472895593684, 74.62260010411032, 74.12246231104488]",78.60901884711882,1.5806004999903962,None
reward-effort-pgACC-TUS,R88533/RE002,A_1,1,2024-07-10_11h25.03.325,None,999,28,f,2.989898681640625,1,44,approach,normal,heart,0.41000000000000003,90,60,58,reject,1.8876990000717342,None,0,1942,"null",None,None,None
reward-effort-pgACC-TUS,R88533/RE002,A_1,1,2024-07-10_11h25.03.325,None,999,28,f,2.989898681640625,1,45,approach,normal,heart,None,80,100,83,accept,0.9937674000393599,success,83,2025,"[-0.11227583109632246, 0.5409653680095536, 1.4085513355720454, 2.1230338970940976, 2.9293785022404135, 4.817653843405837, 7.777653026854338, 10.890755616343279, 15.60634052238882, 21.45489063313362, 26.660406438508566, 31.30454308840191, 37.93902401682096, 41.633919549263574, 44.81847039490472, 49.63612423831055, 53.32081287701713, 54.5966745940208, 57.93432884570239, 60.57791432333398, 62.18039663989058, 63.72163759403101, 66.27336102803834, 68.1412225817317, 68.71280863094934, 69.82536004817655, 71.97901462647872, 73.17322119359415, 73.38756596205077, 73.10177293744195, 73.0507384687618, 73.2548763434824, 72.16273871372725, 70.66232533453093, 70.1213599665214, 70.19280822267359, 70.97873904034785, 72.32604901350372, 74.31639329202943, 75.5208067528809, 76.79666846988455, 77.67446133118308, 78.90949547324263, 80.46094332111909, 81.38977065109775, 82.3492186622845, 83.27804599226317, 83.563839016872, 83.93128719136905, 84.31914915333817, 84.32935604707419, 83.89045961642493, 83.32908046094332, 83.0126667551264, 82.83914956161391, 82.84935645534995, 82.7268737305176, 82.63501168689332, 82.61459789942127, 82.56356343074113, 82.71666683678156, 82.78811509293377, 82.68604615557348, 82.9718391801823, 83.31887356720729, 83.42094250456759, 83.88025272268891, 83.88025272268891, 84.39059740949037, 84.29873536586611, 84.9928041399161, 85.5848039766058, 85.92163146989476, 86.15639002582344, 85.78894185132638, 84.79887315893154, 84.79887315893154, 84.33956294081023, 84.33956294081023, 84.51308013432272, 84.37018362201832, 83.88025272268891, 83.83942514774478, 83.85983893521684, 83.96190787257713, 83.91087340389699, 83.91087340389699, 84.0537699162014, 83.84963204148082]",83.36095096587417,1.890376399969682,None
reward-effort-pgACC-TUS,R88533/RE002,A_1,1,2024-07-10_11h25.03.325,None,999,28,f,2.989898681640625,1,46,approach,normal,heart,None,90,80,77,accept,0.9206453000660986,success,77,2102,"[8.094066732671246, 9.890480030212405, 14.524409786369713, 18.75006379308585, 18.75006379308585, 23.0165453747461, 29.518336684596775, 32.99888744858278, 38.21461014769375, 40.33764404478785, 43.05267777857165, 45.879987343451766, 45.879987343451766, 49.319710532493644, 52.33074418462229, 53.71888173272228, 56.61763955375461, 56.61763955375461, 59.29184571259428, 60.67998326069427, 63.333775632061894, 65.7017749788207, 65.7017749788207, 67.7941881947067, 68.7332224184214, 71.61156645198167, 73.93873822379635, 75.63308258397721, 77.46011656272647, 77.46011656272647, 79.51170220366835, 80.93046043297643, 82.11446010635584, 82.78811509293377, 83.36990803588745, 83.74756310412053, 84.53349392179477, 84.53349392179477, 85.49294193298154, 86.37073479428005, 86.37073479428005, 86.1053555571433, 84.91114899002787, 84.79887315893154, 84.79887315893154, 85.2683902707889, 86.43197615669624, 87.08521735580211, 87.92218264215651, 88.43252732895797, 88.43252732895797, 89.28990640278444, 89.5859063211293, 89.85128555826604, 90.86176803813295, 90.86176803813295, 91.18838863768589, 91.65790574954325, 91.85183673052781, 91.89266430547191, 92.66838822941014, 92.66838822941014, 92.96438814775499, 93.1379053412675, 94.00549130882997, 94.52604288936747, 94.76080144529615, 94.64852561419983, 94.77100833903218, 94.55666357057557, 94.55666357057557, 93.54618109070867, 92.11721596766455, 90.87197493186898, 90.54535433231604, 90.42287160748369, 89.91252692068224, 89.91252692068224, 89.76963040837782, 89.45321670256091, 89.36135465893665, 88.98369959070355, 88.98369959070355, 88.8612168658712, 88.39169975401387, 88.39169975401387, 88.14673430434917, 87.51390689271534, 86.61570024394476, 85.61542465781389, 85.32963163320507, 85.28880405826095, 84.56411460300288, 83.64549416676023, 83.64549416676023, 83.10452879875068, 82.84935645534995, 83.07390811754259, 83.08411501127861, 82.7677013054617, 82.94121849897421, 83.52301144192788, 83.50259765445583, 83.563839016872, 83.563839016872, 83.62508037928818, 84.08439059740948, 85.2683902707889, 86.04411419472711, 86.04411419472711, 86.60549335020873, 88.21818256050136, 88.95307890949547, 89.57569942739326, 89.76963040837782, 90.01459585804253, 90.8413542506609, 90.8413542506609, 91.00466455043737, 90.93321629428516, 91.32107825625427, 91.35169893746237, 91.41294029987854, 91.4333540873506, 91.4333540873506, 92.10700907392854, 92.88273299786675, 93.46452594082044, 93.35225010972411, 93.35225010972411, 94.79142212650424, 95.51611158176232, 95.44466332561011, 95.79169771263511, 95.79169771263511, 95.77128392516305, 95.80190460637115, 95.86314596878732, 95.86314596878732, 95.88355975625937, 96.097904524716, 96.91445602359833, 96.91445602359833, 96.84300776744614, 96.77155951129393, 96.59804231778143, 96.14893899339614, 96.14893899339614, 95.88355975625937, 95.62838741285864, 95.38342196319394, 95.17928408847337, 95.00576689496086, 94.97514621375277, 94.92411174507262, 93.9442499464138, 93.72990517795719, 93.72990517795719, 93.09707776632338, 92.68880201688219, 92.55611239831381, 92.67859512314617, 92.67859512314617, 93.11749155379543, 92.97459504149103]",93.2997830945547,3.0252449999097735,None
reward-effort-pgACC-TUS,R88533/RE002,A_1,1,2024-07-10_11h25.03.325,None,999,28,f,2.989898681640625,1,47,approach,normal,heart,None,100,80,81,reject,1.6947403999511153,None,0,2102,"null",None,None,None
reward-effort-pgACC-TUS,R88533/RE002,A_1,1,2024-07-10_11h25.03.325,None,999,28,f,2.989898681640625,1,48,approach,normal,heart,None,65,80,97,accept,1.0832819000352174,success,97,2199,"[1.3268961856838108, 1.7147581476529248, 2.4088269217029183, 2.4088269217029183, 2.6844130525757093, 2.990619864656589, 3.8377920447470224, 5.623998448552152, 5.623998448552152, 7.58372204586978, 9.257652618578588, 11.870617415002092, 16.463719596215284, 19.20937401120717, 22.261235238279934, 22.261235238279934, 26.150061751707103, 30.049095158870305, 31.774060200259257, 35.43833505149378, 38.0206791667092, 41.55226439937534, 41.55226439937534, 44.206056770742954, 47.80909025956131, 50.62619293070539, 53.279985302073015, 53.279985302073015, 54.30067467567595, 56.36246721035387, 59.05708715666561, 60.618741898278095, 60.618741898278095, 62.74177579537219, 64.69129249895379, 66.25294724056627, 68.01873985689934, 68.85570514325376, 70.08053239157726, 71.8973594765905, 72.64246271932063, 72.64246271932063, 73.0813591499699, 73.85708307390811, 74.4797035918059, 74.61239321037428, 75.1737723658559, 75.1737723658559, 75.45956539046472, 75.91887560858603, 76.68439263878824, 76.4598409765956, 76.37818582670735, 76.49046165780368, 76.6333581701081, 76.6333581701081, 76.62315127637206, 76.6027374889, 76.62315127637206, 76.76604778867647, 76.76604778867647, 76.74563400120441, 76.89873740724485, 76.56190991395589, 76.26590999561104, 76.26590999561104, 76.07197901462648, 75.82701356496177, 75.49018607167281, 75.11253100343971, 75.11253100343971, 75.04108274728752, 74.97984138487134, 74.81653108509488, 74.96963449113532, 74.67363457279046, 74.67363457279046, 73.79584171149193, 73.11197983117798, 73.10177293744195, 73.20384187480225, 73.20384187480225, 73.00991089381769, 72.95887642513755, 72.58122135690445, 72.34646280097577, 72.34646280097577, 72.43832484460005, 72.77515233788901, 72.57101446316842, 72.48935931328019]",73.92553965431009,1.6295558999991044,None
reward-effort-pgACC-TUS,R88533/RE002,A_1,1,2024-07-10_11h25.03.325,None,999,28,f,2.989898681640625,1,49,approach,normal,heart,None,85,20,16,reject,0.925872000050731,None,0,2199,"null",None,None,None
reward-effort-pgACC-TUS,R88533/RE002,A_1,1,2024-07-10_11h25.03.325,None,999,28,f,2.989898681640625,1,50,approach,normal,heart,0.6779999999999999,75,80,87,reject,1.2539957999251783,None,0,2199,"null",None,None,None
reward-effort-pgACC-TUS,R88533/RE002,A_1,1,2024-07-10_11h25.03.325,None,999,28,f,2.989898681640625,2,51,approach,shifted,heart,None,50,100,95,accept,1.3818909999681637,success,95,2294,"[1.1839996733794005, 1.428965123044104, 1.531034060404397, 1.5208271666683677, 1.5922754228205729, 1.9086891286374819, 1.949516703581599, 1.9903442785257162, 2.1944821532463026, 2.398620027966889, 2.5721372214793874, 2.766068202463944, 3.27641288926541, 3.4703438702499665, 3.8786196196911393, 4.276688475396282, 4.929929674502159, 5.838343217008768, 7.134618721484491, 7.74703234564625, 8.430894225960213, 9.451583599563145, 10.625376379206516, 11.227583109632246, 12.564686189052084, 13.371030794198402, 14.1365478244006, 14.87144417339471, 15.983995590621905, 17.15778837026528, 17.780408888163066, 18.107029487716, 19.07668439263879, 20.38316679085054, 22.577648944096843, 23.873924448572566, 25.41516540271299, 27.39530278750268, 29.58978494074898, 30.80440529533647, 31.641370581690875, 33.009094342318804, 34.98923172710849, 36.948955324426116, 37.82674818572464, 38.79640309064742, 40.041644126442996, 41.2970920559746, 42.88936747879518, 43.532401784165025, 43.910056852398114, 44.15502230206281, 44.38978085799149, 44.38978085799149, 44.593918732712076, 45.18591856940177, 46.82922846090249, 48.91143478305247, 50.432261949720846, 51.851020179028914, 53.57598522041786, 54.46398497545242, 55.260122686862715, 56.55639819133843, 57.801639227134004, 58.556949363600175, 59.04688026292958, 59.19998366897003, 58.812121707000905, 58.812121707000905, 58.771294132056795, 58.80191481326488, 58.82232860073694, 59.0877078378737, 59.84301797433987, 60.91474181662295, 62.84384473273249, 65.46701642289202, 67.99832606942729, 68.69239484347729, 69.26398089269492, 71.13184244638829, 73.03032468128974, 73.92853133006032, 73.04053157502577, 72.39749726965593, 72.37708348218386, 72.72411786920885, 72.9486695314015, 72.88742816898534, 72.78535923162504, 72.96908331887356, 73.06094536249783, 72.54039378196033, 71.4482561522052, 71.4482561522052, 70.83584252804343, 70.1213599665214, 69.0802568054464, 68.6617741622692, 68.50867075622877, 68.37598113766037, 68.33515356271626, 68.23308462535597, 68.10039500678758, 68.35556735018832, 68.44742939381257, 67.92687781327508, 67.51860206383391, 67.04908495197657, 66.30398170924643, 66.26315413430231, 65.73239566002879]",67.32296993389335,2.486826700042002,None
reward-effort-pgACC-TUS,R88533/RE002,A_1,1,2024-07-10_11h25.03.325,None,999,28,f,2.989898681640625,2,52,approach,shifted,heart,None,85,100,98,accept,1.4855438999366015,success,98,2392,"[-0.09186204362426383, 0.23475855592867426, 0.5307584742735244, 0.6940687740499935, 0.7348963489941106, 0.908413542506609, 1.132965204699254, 1.8372408724852765, 2.439447602911006, 2.8681371398242375, 3.490757657722025, 4.1337919630918725, 6.593653353474938, 7.859308176742571, 8.287997713655804, 8.461514907168302, 8.655445888152858, 9.247445724842558, 9.635307686811673, 9.757790411644024, 10.104824798669021, 11.01323834117563, 12.146203545874885, 13.483306625294725, 14.1365478244006, 14.942892429546916, 16.65765057719984, 17.025098751696895, 17.57627101344248, 17.657926163330714, 17.90289161299542, 18.443856981004974, 18.88275341165423, 19.23999469241526, 19.55640839823217, 20.025925510089515, 20.811856327763774, 21.46509752686965, 21.99585600114317, 22.404131750584344, 22.557235156624785, 22.843028181233606, 23.312545293090952, 23.51668316781154, 23.63916589264389, 23.720821042532126, 23.873924448572566, 24.302613985485795, 24.935441397119614, 25.56826880875343, 26.262337582803426, 25.711165321057845, 25.711165321057845, 25.690751533585782, 25.660130852377694, 25.190613740520345, 25.047717228215937, 25.037510334479908, 25.221234421728433, 25.476406765129166, 25.639717064905636, 26.272544476539455, 27.436130362446796, 28.089371561552674, 28.620130035826197, 29.855164177885747, 30.63088810182397, 32.03943943739602, 33.70316311636879, 36.34674859400039, 37.24495524277096, 38.194196360221696, 39.102609902728304, 40.54178191950844, 42.18509181100916, 45.502332275218684, 48.809365845692184, 51.0446755738826, 53.03501985240832, 53.9332265011789, 54.525226337868595, 56.5461912976024, 58.11805293295092, 59.29184571259428, 60.690190154430304, 62.45598277076338, 65.37515437926776, 67.81460198217877, 68.88632582446185, 70.39694609739418, 72.428117950864, 73.92853133006032, 73.84687618017209, 73.93873822379635, 74.76549661641472, 74.76549661641472, 75.87804803364192, 76.13322037704265, 77.39887520031029, 79.35859879762792, 79.60356424729262, 80.02204689046982, 80.06287446541394, 81.07335694528084, 81.27749482000142, 82.08383942514774, 82.84935645534995, 83.42094250456759, 84.14563195982566, 84.67639043409919, 85.07445928980434, 85.80935563879845, 86.44218305043226, 85.87059700121462, 85.21735580210874, 85.08466618354036, 85.99307972604697, 86.2788727506558, 86.9117001622896, 87.67721719249181, 88.53459626631826, 88.8612168658712, 89.25928572157635, 89.54507874618517, 89.74921662090576, 90.48411296989987, 90.85156114439692, 90.85156114439692, 91.23942310636603, 91.45376787482266, 91.44356098108662, 91.44356098108662, 91.82121604931972, 91.73956089943147, 91.73956089943147, 91.75997468690353, 92.14783664887266, 92.14783664887266, 92.09680218019251, 92.42342277974545, 93.02562951017117, 93.02562951017117, 93.4543190470844, 92.80107784797852, 92.42342277974545, 92.28052626744103, 92.28052626744103, 92.10700907392854, 92.24990558623294, 92.21928490502485, 92.10700907392854, 92.57652618578588, 93.54618109070867, 92.5459055045778, 92.07638839272045, 92.18866422381676, 92.69900891061823, 92.73983648556235, 92.13762975513662, 91.6068712808631, 91.71914711195942, 92.18866422381676, 92.82149163545058, 92.7908709542425, 92.81128474171454, 92.72962959182632, 92.43362967348146, 92.95418125401896, 93.65845692180498]",91.91411961271297,3.654241200070828,None
reward-effort-pgACC-TUS,R88533/RE002,A_1,1,2024-07-10_11h25.03.325,None,999,28,f,2.989898681640625,2,53,approach,shifted,heart,None,100,80,81,accept,1.2657477000029758,failure,0,2392,"[5.042205505598481, 6.818205015667582, 8.03282537025507, 8.849376869137416, 10.676410847886663, 10.676410847886663, 12.299306951915323, 13.483306625294725, 13.993651312096189, 14.105927143192512, 14.71834076735427, 16.616823002255725, 18.525512130893205, 18.525512130893205, 20.54647709062701, 23.66978657385198, 26.76247537586886, 30.4675778020475, 32.825370255070276, 37.367437967603315, 39.6231614832658, 39.6231614832658, 42.00136772376063, 44.06316025843855, 46.01267696202015, 49.11557265777306, 50.9732273177304, 53.19833015218478, 53.19833015218478, 53.95364028865095, 54.65791595643697, 55.5357088177355, 56.8932256846274, 58.771294132056795, 60.159431680156786, 61.40467271595236, 61.40467271595236, 62.99694813877292, 65.39556816673982, 67.66149857613833, 68.60053279985301, 69.68246353587213, 69.68246353587213, 72.07087667010299, 73.10177293744195, 73.10177293744195, 73.06094536249783, 72.98949710634562, 73.71418656160371, 73.71418656160371, 75.10232410970369, 75.62287569024119, 77.33763383789412, 78.56246108621762, 79.4912884161963, 80.68549498331173, 82.28797729986833, 82.89018403029405, 82.89018403029405, 83.38011492962347, 83.47197697324773, 84.00273544752126, 84.58452839047493, 84.7478386902514, 85.92163146989476, 85.92163146989476, 86.69735539383299, 86.70756228756903, 87.24852765557858, 88.17735498555724, 88.17735498555724, 88.22838945423739, 88.74894103477489, 89.14700989048004, 89.1061823155359, 89.1061823155359, 89.47363049003297, 89.52466495871312, 89.56549253365723, 89.6267338960734, 89.45321670256091, 89.45321670256091, 89.57569942739326, 89.57569942739326, 89.60632010860135, 89.54507874618517, 89.6267338960734, 89.85128555826604, 89.93294070815429, 89.93294070815429, 90.34121645759546, 90.67804395088443, 90.5657681197881, 90.66783705714839, 90.78011288824473, 90.72907841956457, 90.67804395088443, 90.57597501352413, 90.57597501352413, 90.39225092627561, 89.89211313321017, 89.69818215222561, 89.60632010860135, 89.60632010860135, 89.52466495871312, 89.7594235146418, 89.85128555826604, 89.88190623947415, 89.88190623947415, 90.06563032672267, 90.46369918242782, 90.7392853133006, 90.8413542506609, 90.8413542506609, 91.04549212538147, 91.04549212538147, 91.11694038153368, 91.04549212538147, 91.13735416900575, 91.17818174394986, 91.22921621263002, 91.35169893746237, 91.84162983679177, 91.84162983679177, 91.89266430547191, 91.98452634909619, 92.36218141732925, 92.75004337929838, 92.75004337929838, 93.16852602247559, 93.91362926520573, 94.64852561419983, 94.76080144529615, 94.76080144529615, 94.90369795760057, 95.3323874945138, 95.403835750666, 95.6794218815388, 95.6794218815388, 95.93459422493953, 96.14893899339614, 96.66949057393364, 96.75114572382188, 97.01652496095863, 97.01652496095863, 97.01652496095863, 97.24107662315127, 97.54728343523216, 97.42480071039981, 97.64935237259245, 98.16990395312995, 98.16990395312995, 98.16990395312995, 98.06783501576966, 98.33321425290642, 98.38424872158656, 98.24135220928216, 98.27197289049023, 98.0474212282976, 98.00659365335348, 98.00659365335348, 98.00659365335348, 97.98617986588141, 97.85349024731303, 97.41459381666377, 97.01652496095863, 97.01652496095863, 96.72052504261379, 96.10811141845203, 95.9958355873557, 95.9958355873557, 96.10811141845203, 96.12852520592408, 96.12852520592408, 95.78149081889909, 95.23031855715351, 95.39362885692996, 95.39362885692996, 95.88355975625937, 96.05707694977188, 96.07749073724393, 96.25100793075644, 96.9348698110704, 96.9348698110704, 96.96549049227848, 96.43473201800496, 97.20024904820716, 97.31252487930348, 97.25128351688731, 97.05735253590275, 97.05735253590275, 97.12880079205496, 97.37376624171966, 97.40438692292774, 97.3533524542476, 97.79224888489686, 98.0168005470895, 97.7718350974248, 97.7718350974248, 97.82286956610494, 98.06783501576966, 97.53707654149612, 97.30231798556746, 97.72080062874466, 97.72080062874466, 98.06783501576966, 98.00659365335348, 98.2923866779623, 98.44549008400274, 98.63942106498729, 98.84355893970788, 98.84355893970788, 99.01707613322037, 99.49680013881375, 99.6192828636461, 99.84383452583874, 100.61955844977697, 100.88493768691373, 100.85431700570567, 101.20135139273066, 101.20135139273066, 101.40548926745123, 101.26259275514681, 101.66066161085196, 102.23224766006962, 102.23224766006962, 102.17100629765343, 102.14038561644534, 102.1301787227093, 101.75252365447622, 101.76273054821226, 101.76273054821226, 101.87500637930857, 101.8852132730446, 102.32410970369388, 102.6099027283027, 102.53845447215049, 102.53845447215049, 102.69155787819093, 102.80383370928725, 102.51804068467843, 102.6813509844549, 102.6813509844549, 103.02838537147989, 103.09983362763211, 103.55914384575343, 103.57955763322548, 103.7224541455299, 103.84493687036225, 104.33486776969166, 104.33486776969166, 104.74314351913283, 104.95748828758944, 105.0493503312137, 105.14121237483795, 105.17183305604605, 105.17183305604605, 105.12079858736591, 105.12079858736591, 105.0799710124218, 105.17183305604605, 105.58010880548723, 105.62093638043135, 105.5699019117512, 105.5699019117512, 105.41679850571074, 105.12079858736591, 105.02893654374164, 104.8758331377012, 104.91666071264531, 105.23307441846224, 105.48824676186297, 105.48824676186297, 105.4678329743909, 105.49845365559901, 105.47803986812694, 105.5392812305431]",0,5.00358200003393,None
reward-effort-pgACC-TUS,R88533/RE002,A_1,1,2024-07-10_11h25.03.325,None,999,28,f,2.989898681640625,2,54,approach,shifted,heart,None,65,60,62,accept,1.565134200034663,success,62,2454,"[0.6022067304257296, 1.2044134608514592, 2.071999428413951, 2.071999428413951, 2.766068202463944, 3.3682749328896735, 5.021791718126423, 7.451032427301399, 7.451032427301399, 8.594204525736684, 9.890480030212405, 12.166617333346942, 14.840823492186622, 14.840823492186622, 17.10675390158513, 19.148132648790995, 21.097649352372592, 23.608545211435803, 23.608545211435803, 25.558061915017404, 27.813785430679882, 29.947026221510008, 29.947026221510008, 30.82481908280853, 31.835301562675433, 33.59088728527247, 33.59088728527247, 35.887438375879064, 37.09185183673053, 37.57157584232391, 38.87805824053566, 38.87805824053566, 40.24578200116359, 41.79722984904004, 43.14453982219591, 44.68578077633634, 44.68578077633634, 46.40053892398926, 48.921641676788504, 51.02426178641054, 53.167709470976696, 53.167709470976696, 54.27005399446786, 54.61708838149286, 55.35198473048697, 55.35198473048697, 56.801363641003135, 58.250742551519295, 58.24053565778327, 58.75088034458473, 58.75088034458473, 59.91446623049207, 61.71087952803324, 62.10894838373837, 62.10894838373837, 62.32329315219499, 63.221499800965574, 64.85460279873027, 66.76329192736775, 66.76329192736775, 67.83501576965082, 68.6617741622692, 69.05984301797434, 69.05984301797434, 69.95804966674491, 71.72384228307799, 73.2242556622743, 73.92853133006032, 73.92853133006032, 74.22453124840517, 74.77570351015076, 75.96991007726619, 75.96991007726619, 76.0821859083625, 75.63308258397721, 75.84742735243384, 75.84742735243384, 76.0413583334184, 76.1128065895706, 76.40880650791544, 76.2863237830831, 76.2863237830831, 75.99032386473824, 75.74535841507354, 75.7657722025456, 76.01073765221031, 76.01073765221031, 75.8372204586978, 75.87804803364192, 76.39859961417942, 76.39859961417942, 76.84770293856471, 77.77653026854338, 77.52135792514264, 77.34784073163014, 77.34784073163014, 77.3682545191022, 77.23556490053382, 77.58259928755882, 77.58259928755882, 77.17432353811763, 77.0212201320772, 77.41928898778235, 77.41928898778235, 77.49073724393455, 77.03142702581324, 76.54149612648384, 76.44963408285956, 76.44963408285956, 76.31694446429118, 76.4292202953875, 76.84770293856471, 76.76604778867647, 76.76604778867647, 76.949771875925, 77.50094413767059, 77.56218550008676, 77.56218550008676, 78.08273708062426, 78.2358404866647, 79.00135751686689, 79.60356424729262, 79.60356424729262, 79.95059863431761, 80.14452961530218, 79.80770212201321]",76.70597770914806,2.0985281999455765,None
reward-effort-pgACC-TUS,R88533/RE002,A_1,1,2024-07-10_11h25.03.325,None,999,28,f,2.989898681640625,2,55,approach,shifted,heart,None,80,100,83,accept,1.869827299960889,success,83,2537,"[2.071999428413951, 2.4904820715911526, 2.8375164586161494, 2.8375164586161494, 3.4499300827779087, 4.02151613199555, 5.583170873608035, 7.226480765108755, 8.686066569360946, 9.880273136476376, 12.94234125728517, 16.718891939616018, 19.80137384789687, 23.49626938033948, 28.95695752911516, 31.508680963122494, 35.95888663203127, 38.86785134679963, 38.86785134679963, 41.378747205862844, 43.45074663427679, 46.227021730476764, 48.105090177906156, 48.105090177906156, 49.63612423831055, 51.47336511079583, 53.688261051514196, 55.58674328641564, 58.363018382615614, 60.32274197993325, 61.700672634297206, 63.221499800965574, 65.07915446092291, 65.53846467904422, 66.62039541506334, 67.24301593296113, 67.10011942065671, 67.86563645085891, 68.54949833117287, 68.93736029314199, 69.28439468016698, 70.1213599665214, 72.9486695314015, 74.14287609851694, 74.43887601686178, 74.46949669806988, 75.21459994080001, 75.58204811529707, 76.33735825176325, 77.01101323834118, 77.55197860635073, 77.84797852469558, 78.66453002357792, 79.40963326630806, 79.43004705378013, 79.47087462872425, 79.8791503781654, 79.96080552805364, 79.65459871597277, 80.37928817123084, 80.70590877078378, 80.78756392067203, 80.8181846018801, 80.86921907056026, 81.42039133230584, 81.94094291284334, 82.42066691843671, 82.42066691843671, 82.74728751798965, 83.39032182335949, 83.47197697324773, 83.44135629203964, 83.44135629203964, 83.27804599226317, 83.10452879875068, 83.25763220479112, 83.30866667347127, 83.35970114215141, 83.17597705490289, 83.31887356720729, 83.49239076071979, 83.58425280434405, 83.83942514774478, 84.31914915333817, 84.5743214967389, 86.02370040725505, 86.85045879987344, 87.67721719249181, 88.23859634797341, 88.38149286027783, 88.65707899115063, 88.94287201575945, 89.54507874618517, 89.50425117124105, 89.2082512528962, 88.93266512202341, 88.34066528533371, 86.4932175191124, 86.16659691955947, 86.26866585691977, 86.54425198779255, 86.64632092515285, 86.60549335020873, 86.65652781888888, 86.93211394976167, 87.08521735580211, 87.16687250569034, 86.97294152470579, 86.97294152470579, 87.68742408622784, 88.32025149786166, 88.2998377103896, 88.36107907280577, 88.50397558511018, 88.60604452247047, 88.66728588488665, 88.85100997213517, 89.12659610300797, 89.136802996744, 88.94287201575945, 89.00411337817562, 89.00411337817562, 89.15721678421606, 89.47363049003297, 89.45321670256091, 89.5552856399212, 89.53487185244914, 89.6267338960734, 89.61652700233738, 89.63694078980944]",87.9606711372861,2.7690399999264628,None
reward-effort-pgACC-TUS,R88533/RE002,A_1,1,2024-07-10_11h25.03.325,None,999,28,f,2.989898681640625,2,56,approach,shifted,heart,None,80,80,74,reject,1.0646564000053331,None,0,2537,"null",None,None,None
reward-effort-pgACC-TUS,R88533/RE002,A_1,1,2024-07-10_11h25.03.325,None,999,28,f,2.989898681640625,2,57,approach,shifted,heart,None,55,80,91,accept,1.575012999936007,success,91,2628,"[1.8474477662213058, 2.3271717718146836, 4.082757494411726, 4.082757494411726, 5.532136404927888, 7.451032427301399, 9.257652618578588, 11.431720984352832, 14.45296153021751, 18.515305237157175, 18.515305237157175, 20.617925346779213, 22.90426954364978, 25.476406765129166, 25.476406765129166, 28.089371561552674, 30.18178477743868, 31.110612107417353, 33.51943902912027, 33.51943902912027, 36.91833464321803, 38.43916180988639, 40.8071611566452, 42.7566778602268, 43.79778102130179, 44.42040153919958, 44.42040153919958, 44.961366907209126, 46.28826309289294, 49.11557265777306, 51.289641023547304, 51.289641023547304, 53.310605983281114, 54.147571269635506, 56.709501597378875, 56.709501597378875, 59.84301797433987, 60.46563849223766, 61.27198309738397, 62.8846723076766, 63.86453410633543, 63.90536168127954, 64.63005113653762, 64.63005113653762, 65.47722331662806, 66.25294724056627, 66.38563685913465, 66.4672920090229, 66.44687822155083, 66.37542996539864, 66.49791269023099, 67.11032631439274, 67.11032631439274, 67.39611933900156, 67.92687781327508, 68.60053279985301, 68.78425688710155, 68.77404999336551, 69.30480846763905, 70.29487716003389, 70.29487716003389, 70.9277045716677, 70.98894593408389, 70.34591162871403, 70.15198064772947, 70.13156686025742, 70.15198064772947, 70.17239443520154, 70.17239443520154, 70.30508405376992, 70.30508405376992, 70.34591162871403, 70.71335980321109, 70.8562563155155, 70.94811835913977, 70.69294601573904, 70.34591162871403, 70.34591162871403, 70.34591162871403, 70.08053239157726, 69.92742898553684, 69.47832566115154, 69.47832566115154, 69.17211884907066, 69.24356710522287, 69.36604983005522, 68.84549824951772, 68.64136037479713, 68.64136037479713, 68.55970522490891, 68.49846386249273, 68.4882569687567, 68.44742939381257, 68.35556735018832, 68.26370530656405]",68.59196629975312,1.7454597000032663,None
reward-effort-pgACC-TUS,R88533/RE002,A_1,1,2024-07-10_11h25.03.325,None,999,28,f,2.989898681640625,2,58,approach,shifted,heart,None,70,80,94,accept,1.0862557999789715,success,94,2722,"[-0.051034468680146564, 0.1531034060404397, 0.6328274116338174, 1.428965123044104, 2.3271717718146836, 2.990619864656589, 3.9704816633154034, 6.440549947434497, 6.440549947434497, 8.236963244975657, 10.176273054821227, 12.64634133894032, 15.249099241627794, 18.811305155502026, 18.811305155502026, 21.036407989956416, 23.66978657385198, 28.456819736049727, 30.692129464240146, 30.692129464240146, 31.876129137619547, 34.131852653282024, 36.0711624631276, 36.999989793106266, 38.08192052912538, 39.14343747767242, 39.14343747767242, 40.35805783225991, 41.980953936288564, 42.5831606667143, 43.511987996692966, 44.61433252018413, 46.26784930542088, 48.3296418400988, 48.3296418400988, 50.12605513763996, 51.56522715442009, 53.310605983281114, 54.4231574005083, 56.06646729200902, 56.06646729200902, 58.29157012646341, 59.84301797433987, 60.88412113541486, 61.76191399671338, 61.76191399671338, 63.09901707613322, 64.75253386136997, 66.55915405264716, 67.33487797658539, 67.97791228195523, 67.97791228195523, 68.4882569687567, 68.84549824951772, 69.66204974840007, 70.13156686025742, 70.15198064772947, 70.62149775958683, 70.62149775958683, 71.78508364549417, 72.27501454482358, 71.85653190164636, 71.50949751462137, 72.27501454482358, 72.27501454482358, 72.61184203811254, 73.19363498106621, 73.79584171149193, 74.53073806048606, 75.32687577189634, 75.25542751574413, 75.14315168464782, 75.6943239463934, 76.16384105825075, 76.62315127637206, 76.62315127637206, 77.65404754371103, 77.93984056831984, 77.93984056831984, 77.75611648107132, 77.75611648107132, 78.19501291172057, 79.4198401600441, 80.05266757167792, 79.95059863431761, 79.95059863431761, 80.53239157727128, 80.76715013319996, 80.77735702693599, 80.69570187704775, 80.59363293968747, 80.59363293968747, 80.64466740836761, 80.76715013319996, 81.00190868912863, 81.46121890724996, 82.0736325314117, 81.83887397548304, 81.17542588264114, 81.18563277637718, 81.31832239494554, 81.31832239494554, 81.97156359405142, 82.0328049564676, 82.04301185020363, 81.93073601910731, 81.69597746317862, 81.73680503812275, 81.73680503812275, 81.69597746317862, 81.15501209516907, 80.76715013319996, 80.31804680881467, 80.31804680881467, 80.71611566451982, 80.6752880895757, 80.62425362089554, 80.33846059628674, 80.51197778979923, 80.48135710859114, 80.21597787145438, 80.21597787145438, 79.97101242178968, 80.33846059628674, 79.88935727190145, 79.3483919038919]",79.91084546924047,2.2918249999638647,None
reward-effort-pgACC-TUS,R88533/RE002,A_1,1,2024-07-10_11h25.03.325,None,999,28,f,2.989898681640625,2,59,approach,shifted,heart,None,65,100,98,accept,1.3194034999469295,success,98,2820,"[3.1947577393771756, 3.623447276290406, 4.082757494411726, 5.95061904810509, 7.59392893960581, 8.573790738264623, 10.737652210302837, 13.411858369142518, 16.51475406489543, 19.403304992191725, 22.02647668235126, 25.4866136588652, 28.10978534902473, 30.426750227103383, 31.294336194665878, 32.937646086166595, 34.52992150898717, 36.78564502464965, 37.928817123084926, 38.990334071631985, 42.317781429577536, 43.62426382778929, 44.78784971369663, 48.11529707164219, 50.08522756269584, 52.53488205934288, 53.545364539209785, 54.433364294244335, 55.413226092903145, 58.00577710185459, 59.54701805599502, 60.67998326069427, 61.619017484408964, 62.29267247098691, 63.59915486919866, 65.11998203586703, 66.13046451573392, 66.82453328978391, 67.24301593296113, 68.04936053810744, 68.69239484347729, 69.66204974840007, 70.34591162871403, 71.8667387953824, 73.61211762424341, 74.76549661641472, 75.49018607167281, 75.6637032651853, 75.6637032651853, 75.64328947771325, 76.61294438263603, 77.17432353811763, 77.37846141283823, 77.87859920590367, 78.4808059363294, 78.54204729874557, 78.80742653588233, 79.70563318465291, 79.88935727190145, 79.88935727190145, 79.94039174058159, 79.5933573535566, 79.58315045982056, 79.6341849285007, 79.61377114102865, 78.96052994192277, 78.42977146764925, 78.34811631776103, 77.59280618129485, 77.25597868800588, 76.52108233901177, 76.1128065895706, 76.0821859083625, 75.9392893960581, 75.561634327825, 75.561634327825, 75.51059985914486, 75.14315168464782, 74.93901380992722, 75.02066895981547, 74.77570351015076, 74.68384146652649, 74.71446214773458, 74.71446214773458, 74.53073806048606, 74.7246690414706, 75.30646198442427, 75.77597909628163, 75.80659977748971, 75.80659977748971, 76.31694446429118, 76.80687536362059]",76.66064598805542,1.9653214999707416,None
reward-effort-pgACC-TUS,R88533/RE002,A_1,1,2024-07-10_11h25.03.325,None,999,28,f,2.989898681640625,2,60,approach,shifted,heart,None,80,20,23,reject,1.245389400050044,None,0,2820,"null",None,None,None
reward-effort-pgACC-TUS,R88533/RE002,A_1,1,2024-07-10_11h25.03.325,None,999,28,f,2.989898681640625,2,61,approach,shifted,heart,0.854,60,100,119,accept,2.5421207000035793,success,119,2939,"[-0.5613791554816122, -0.4184826431772019, -0.3470343870249967, -0.18372408724852765, -0.030620681208087943, 0.0714482561522052, 0.16331029977646902, 0.25517234340073286, 0.37765506823308465, 0.7859308176742572, 1.6739305727088076, 2.2251028344543906, 2.5721372214793874, 3.174343951905117, 3.9398609821073154, 5.889377685688914, 7.59392893960581, 8.47172180090433, 9.2270319373705, 10.319169567125638, 11.482755453032977, 12.717789595092526, 13.769099649903547, 15.259306135363826, 17.0965470078491, 19.199167117471138, 20.913925265124064, 22.526614475416697, 28.895716166698985, 30.600267420615886, 31.85571535014749, 34.80550763985996, 36.806058812121705, 38.15336878527758, 39.857920039194475, 42.12385044859298, 43.99171200228634, 45.98205628081206, 49.39115878864585, 51.53460647321201, 53.21874393965685, 53.94343339491493, 53.99446786359508, 54.37212293182816, 55.321364049278884, 58.0772253580068, 59.12853541281782, 60.46563849223766, 61.629224378145, 62.51722413317955, 63.73184448776704, 64.762740755106, 65.7017749788207, 66.6101885213273, 67.94729160074714, 68.67198105600522, 69.4272911924714, 69.50894634235964, 69.78453247323242, 70.44798056607434, 70.98894593408389, 71.30535963990079, 71.6217733457177, 71.90756637032652, 72.47915241954416, 73.16301429985812, 72.88742816898534, 72.5608075694324, 72.61184203811254, 71.71363538934196, 70.73377359068314, 69.89680830432874, 69.72329111081625, 69.8457738356486, 70.03970481663315, 70.02949792289712, 70.1621875414655, 70.07032549784125, 70.23363579761771, 71.41763547099711, 72.03004909515886, 72.29542833229563, 72.95887642513755, 73.33653149337063, 73.99997958621253, 74.12246231104488, 74.27556571708533, 74.56135874169414, 74.64301389158237, 75.05128964102354, 75.40853092178457, 75.06149653475957, 74.92880691619119, 75.11253100343971, 75.16356547211987, 75.25542751574413, 75.46977228420076, 75.51059985914486, 75.45956539046472, 75.20439304706399, 74.87777244751105]",72.30244557173917,2.1882188000017777,None
reward-effort-pgACC-TUS,R88533/RE002,A_1,1,2024-07-10_11h25.03.325,None,999,28,f,2.989898681640625,2,62,approach,shifted,heart,None,70,40,38,reject,2.4285410000011325,None,0,2939,"null",None,None,None
reward-effort-pgACC-TUS,R88533/RE002,A_1,1,2024-07-10_11h25.03.325,None,999,28,f,2.989898681640625,2,63,approach,shifted,heart,None,95,40,34,reject,1.4767295999918133,None,0,2939,"null",None,None,None
reward-effort-pgACC-TUS,R88533/RE002,A_1,1,2024-07-10_11h25.03.325,None,999,28,f,2.989898681640625,2,64,approach,shifted,heart,None,50,40,32,accept,1.399297900032252,success,32,2971,"[-0.5817929429536709, -0.551172261745583, -0.551172261745583, -0.5409653680095536, -0.551172261745583, -0.4899308993294071, -0.4899308993294071, -0.4899308993294071, -0.4593102181213191, -0.3368274932889674, -0.3368274932889674, -0.23475855592867426, 0.030620681208087943, 0.3980688557051432, 0.3980688557051432, 1.7351719351249832, 2.776275096199974, 4.184826431772018, 6.4915844161146445, 6.4915844161146445, 8.318618394863892, 10.329376460861665, 12.983168832229289, 12.983168832229289, 16.48413338368734, 19.015443030222613, 21.475304420605674, 24.36385534790197, 24.36385534790197, 27.37488900003062, 30.14095720249457, 31.478060281914406, 31.478060281914406, 33.61130107274453, 36.530472681248916, 38.0921274228614, 39.102609902728304, 39.102609902728304, 40.10288548885917, 41.542057505639306, 43.2466087595562, 43.2466087595562, 44.563298051503985, 46.0330907494922, 48.12550396537822, 49.32991742622968, 49.32991742622968, 50.26895164994437, 51.381503067171565, 52.565502740550976, 52.565502740550976, 52.881916446367875, 53.32081287701713, 53.984260969859044, 54.147571269635506, 54.147571269635506, 54.290467781939924, 54.4231574005083, 55.16826064323844, 55.16826064323844, 56.99529462198769, 58.61819072601635, 59.404121543690614, 59.64908699335532, 59.64908699335532, 60.60853500454206, 61.86398293407367, 63.39501699447807, 63.39501699447807, 65.29349922937952, 66.48770579649495, 67.00825737703244, 67.62067100119421, 67.62067100119421, 67.61046410745818, 67.87584334459494, 68.13101568799567, 68.13101568799567, 68.54949833117287, 68.95777408061404, 69.24356710522287, 69.24356710522287, 69.35584293631919, 69.92742898553684, 70.28467026629785, 70.28467026629785, 70.67253222826697, 70.18260132893757, 70.14177375399345, 70.14177375399345, 69.77432557949639, 69.17211884907066, 68.77404999336551, 68.69239484347729, 68.69239484347729, 68.44742939381257, 68.23308462535597, 67.98811917569127, 67.98811917569127, 67.32467108284935, 67.07970563318464, 66.97763669582436, 67.0592918457126, 67.0592918457126, 67.11032631439274, 67.11032631439274, 67.15115388933685, 67.15115388933685, 67.10011942065671, 66.67142988374349, 66.40605064660672, 66.3652230716626, 66.3652230716626, 66.6408092025354, 66.94701601461627, 66.56936094638318, 66.56936094638318, 66.62039541506334, 66.94701601461627, 67.23280903922509, 67.23280903922509, 67.15115388933685, 67.21239525175304]",66.98652657101381,2.0472912000259385,None
reward-effort-pgACC-TUS,R88533/RE002,A_1,1,2024-07-10_11h25.03.325,None,999,28,f,2.989898681640625,2,65,approach,shifted,heart,None,75,80,86,accept,1.2417629000265151,success,86,3057,"[-0.3980688557051432, -0.3674481744970553, -0.357241280761026, -0.3674481744970553, -0.38786196196911393, -0.38786196196911393, -0.4082757494411725, -0.4491033243852898, -0.3980688557051432, -0.43889643064926054, -0.4899308993294071, -0.4899308993294071, -0.5001377930654364, -0.4797240055933778, -0.4286895369132312, -0.37765506823308465, -0.23475855592867426, 0.051034468680146564, 0.4797240055933778, 0.908413542506609, 0.908413542506609, 1.2962755044757228, 1.3779306543639573, 1.63310299776469, 2.204689046982332, 2.2965510906065956, 2.337378665550713, 2.337378665550713, 2.337378665550713, 2.4088269217029183, 2.5415165402712994, 2.6537923713676217, 2.9293785022404135, 2.9293785022404135, 3.633654170026436, 4.113378175619813, 4.705378012309514, 6.358894797546263, 7.767446133118308, 7.767446133118308, 8.93103201902565, 10.298755779653577, 12.329927633123411, 14.606064936257948, 17.504822757290274, 20.199442703602013, 20.199442703602013, 23.577924530227715, 26.701234013452684, 30.447164014575446, 33.98895614097761, 33.98895614097761, 36.84688638706582, 38.163575679013604, 39.83750625172242, 42.14426423606504, 43.55281557163708, 43.55281557163708, 44.80826350116869, 47.798883365825276, 50.00357241280761, 52.05515805374951, 52.05515805374951, 53.49433007052964, 54.08632990721933, 54.95391587478182, 57.20963939044431, 57.20963939044431, 59.2612250313862, 60.67998326069427, 61.59860369693691, 62.74177579537219, 64.85460279873027, 65.15060271707512, 65.15060271707512, 64.85460279873027, 65.64053361640451, 67.13074010186479, 67.15115388933685, 67.06949873944862, 67.06949873944862, 67.62067100119421, 67.61046410745818, 67.84522266338685, 68.4882569687567, 68.52908454370082, 68.52908454370082, 68.71280863094934, 68.87611893072581, 69.11087748665449, 69.55998081103978, 70.60108397211476, 72.39749726965593, 73.94894511753239, 74.53073806048606, 74.53073806048606, 73.91832443632428, 74.11225541730884, 75.15335857838384, 76.0821859083625, 76.75584089494045, 76.75584089494045, 78.07253018688823, 78.97073683565881, 79.9097710593735, 80.89983975176834, 80.98149490165657, 81.56328784461026, 82.5941841119492, 82.5941841119492, 82.7677013054617, 83.12494258622274, 83.563839016872, 83.23721841731906, 83.23721841731906, 83.41073561083155, 83.84963204148082, 84.2272871097139, 84.2272871097139, 84.2272871097139, 84.2272871097139, 84.34976983454625, 84.52328702805875, 84.62535596541905, 84.59473528421096, 84.59473528421096, 85.10507997101242, 86.08494176967123, 86.13597623835139, 85.31942473946904, 84.76825247772345, 85.05404550233227, 85.05404550233227, 85.04383860859625, 84.6457697528911, 84.52328702805875, 84.52328702805875, 84.55390770926684, 84.52328702805875, 84.52328702805875, 84.5743214967389, 84.4722525593786, 84.37018362201832, 84.37018362201832, 84.65597664662712, 85.15611443969256, 86.05432108846315, 86.4217692629602, 86.51363130658447, 86.51363130658447, 86.61570024394476, 85.45211435803742, 84.4008043032264, 84.2272871097139, 84.39059740949037, 84.27832157839404, 84.17625264103376, 84.17625264103376, 83.77818378532861, 83.60466659181611, 83.54342522939994]",84.26202636207863,2.915746000013314,None
reward-effort-pgACC-TUS,R88533/RE002,A_1,1,2024-07-10_11h25.03.325,None,999,28,f,2.989898681640625,2,66,approach,shifted,heart,None,50,20,18,reject,0.9021635000826791,None,0,3057,"null",None,None,None
reward-effort-pgACC-TUS,R88533/RE002,A_1,1,2024-07-10_11h25.03.325,None,999,28,f,2.989898681640625,2,67,approach,shifted,heart,None,65,40,34,reject,1.732704499969259,None,0,3057,"null",None,None,None
reward-effort-pgACC-TUS,R88533/RE002,A_1,1,2024-07-10_11h25.03.325,None,999,28,f,2.989898681640625,2,68,approach,shifted,heart,None,65,20,19,reject,1.1730619999580085,None,0,3057,"null",None,None,None
reward-effort-pgACC-TUS,R88533/RE002,A_1,1,2024-07-10_11h25.03.325,None,999,28,f,2.989898681640625,2,69,approach,shifted,heart,0.32199999999999995,85,20,16,reject,0.7170872000278905,None,0,3057,"null",None,None,None
reward-effort-pgACC-TUS,R88533/RE002,A_1,1,2024-07-10_11h25.03.325,None,999,28,f,2.989898681640625,2,70,approach,shifted,heart,None,65,80,97,accept,0.8094738000072539,success,97,3154,"[-0.8675859675624916, -0.8369652863544038, -0.816551498882345, -0.7961377114102864, -0.7961377114102864, -0.7859308176742572, -0.7859308176742572, -0.7859308176742572, -0.683861880313964, -0.683861880313964, -0.4286895369132312, 0.24496544966470354, 2.429240709174977, 4.01130923825952, 4.01130923825952, 7.553101364661692, 9.931307605156523, 13.06482398211752, 16.473926489951314, 16.473926489951314, 19.05627060516673, 22.536821369152726, 25.527441233809316, 29.64081940942913, 29.64081940942913, 32.74371510518204, 37.26536903024303, 40.03143723270697, 43.042470884835616, 45.645228787523095, 49.462607044798055, 49.462607044798055, 52.12660630990171, 53.769916201402424, 54.9437089810458, 55.47446745531932, 55.443846774111236, 57.025915303195774, 57.025915303195774, 59.444949118634725, 60.39419023608546, 61.394465822216326, 62.76218958284425, 64.75253386136997, 64.75253386136997, 67.03887805824054, 68.18205015667583, 68.69239484347729, 69.31501536137507, 69.31501536137507, 70.44798056607434, 72.36687658844784, 74.05101405489268, 75.3472895593684, 75.3472895593684, 76.70480642626029, 77.74590958733528, 78.39915078644117, 78.53184040500955, 78.05211639941616, 78.05211639941616, 78.34811631776103, 78.56246108621762, 79.67501250344483, 79.9812193155257, 79.68521939718084, 78.95032304818675, 78.95032304818675, 78.6543231298419, 78.54204729874557, 78.19501291172057, 78.2358404866647, 78.6543231298419, 78.6543231298419, 78.78701274841028, 78.26646116787278, 77.16411664438162, 76.05156522715441, 76.1128065895706, 76.1128065895706, 76.56190991395589, 77.03142702581324, 77.53156481887868, 77.60301307503087, 77.58259928755882, 77.53156481887868, 77.4397027752544, 77.4397027752544, 77.6132199687669, 78.51142661753748, 79.1748747103794, 79.33818501015585, 79.51170220366835, 79.67501250344483, 79.67501250344483, 79.65459871597277, 79.54232288487646, 79.33818501015585, 79.05239198554705, 79.00135751686689, 79.05239198554705, 79.05239198554705, 78.92990926071468, 78.38894389270513, 77.70508201239117, 77.4703234564625, 77.79694405601543, 77.5417717126147]",78.01630273718446,1.936723299906589,None
