expName,curec_ID,trial_schedule,session_nr,date,start_time,end_time,duration,participant,age,gender,max_strength,block_number,trial_count,block_action_type,block_global_effort_state,block_attention_focus,trial_rating,trial_effort,trial_outcome_level,trial_actual_outcome,response,response_time,result,points,cumulative_points,effort_trace,effort_expended,effort_response_time,final_bonus_payment
reward-effort-pgACC-TUS,R88533/RE002,B_4,0,2024-07-24_15h36.15.857,2024-07-24 15:40:39,None,None,2,,,2.32672119140625,1,1,approach,shifted,reward,None,85,80,80,accept,2.5596519999671727,success,80,80,"[3.121638991631909, 3.121638991631909, 3.121638991631909, 3.1478712520657903, 3.1478712520657903, 3.174103512499672, 3.1478712520657903, 3.13475512184885, 3.13475512184885, 3.13475512184885, 3.13475512184885, 3.1478712520657903, 3.121638991631909, 3.121638991631909, 3.108522861414968, 3.095406731198027, 3.121638991631909, 3.121638991631909, 3.108522861414968, 3.13475512184885, 3.2134519031504944, 3.2134519031504944, 3.2528002938013167, 3.2790325542351986, 3.3052648146690804, 3.3052648146690804, 3.462658377272369, 3.724980981611185, 4.066000367251646, 4.066000367251646, 4.47260040397681, 5.45631017024737, 6.033419899792765, 6.636761889772042, 6.636761889772042, 8.564833031662339, 10.020723485742767, 10.020723485742767, 11.043781642664149, 12.316046273707405, 13.509614123449017, 15.280291702736024, 15.280291702736024, 19.070853335431913, 22.507279452270403, 24.77636997980116, 24.77636997980116, 26.99299598646415, 29.76049946223866, 32.80344167256892, 32.80344167256892, 36.607119435481756, 40.08289394297107, 41.43385535531597, 41.43385535531597, 44.60795886781564, 49.00186249049081, 52.46452086776318, 52.46452086776318, 54.83854043702946, 56.779727709136694, 58.576637548857576, 58.576637548857576, 60.426011909446245, 62.95742504131581, 64.80679940190446, 64.80679940190446, 66.11841242359854, 67.3250964035571, 68.8072191180714, 69.3843288476168, 69.3843288476168, 70.36803861388736, 70.94514834343275, 71.36486451037486, 71.36486451037486, 72.32234201621154, 74.47338737178983, 75.7850003934839, 75.7850003934839, 75.98174234673803, 75.86369717478554, 76.17848429999214, 77.81800057710973, 77.81800057710973, 79.11649746858687, 80.48057501114872, 81.54298155872091, 81.54298155872091, 81.66102673067338, 82.86771071063194, 84.99252380577634, 84.99252380577634, 86.29102069725349, 87.44524015634427, 88.40271766218095, 88.40271766218095, 89.42577581910233, 91.74733086750085, 94.18693108785185, 94.18693108785185, 96.04942157865743, 97.04624747514494, 98.09553789250019, 98.09553789250019, 98.88250570551665, 99.19729283072323, 99.30222187245874, 98.77757666378112, 98.77757666378112, 98.12177015293408, 98.42344114792371, 99.85309934157026, 99.85309934157026, 100.23346711786154, 98.52837018965924, 96.587182917552, 96.587182917552, 93.74098266047585, 91.72109860706698, 91.34073083077568, 91.34073083077568, 92.00965347183967, 92.82285354529, 93.00647936832716, 93.00647936832716, 91.97030508118884, 90.68492431992865, 89.71433068387503, 89.71433068387503, 89.91107263712914, 90.73738884079641, 91.56370504446369, 91.56370504446369, 92.02276960205661, 91.31449857034181, 91.57682117468062, 91.57682117468062, 93.26880197266598, 93.68851813960809, 94.67222790587864, 94.67222790587864, 96.7445764801553, 97.97749272054773, 98.30539597597125, 98.30539597597125, 98.67264762204559, 98.90873796595052, 98.89562183573358, 98.89562183573358, 98.84315731486582, 99.49896382571286, 101.44015109782009, 101.44015109782009, 101.47949948847092, 100.40397681068178, 99.42026704441122]",95.41350081362316,2.611792300012894,None
reward-effort-pgACC-TUS,R88533/RE002,B_4,0,2024-07-24_15h36.15.857,2024-07-24 15:40:39,None,None,2,,,2.32672119140625,1,2,approach,shifted,reward,None,70,40,51,accept,3.082237599999644,success,51,131,"[2.3740195692662835, 2.3740195692662835, 2.5182970016526323, 2.505180871435692, 2.5707615225203955, 2.5707615225203955, 2.662574434038981, 2.872432517510034, 3.160987382282731, 3.160987382282731, 3.292148684452139, 3.4495422470554287, 3.423309986621547, 3.423309986621547, 3.423309986621547, 3.6594003305264815, 3.9086068046483566, 3.9086068046483566, 4.079116497468587, 4.144697148553291, 4.354555232024344, 4.354555232024344, 4.511948794627632, 4.616877836363159, 4.826735919834213, 4.826735919834213, 5.508774691115134, 6.2301618530468765, 8.814039505784214, 8.814039505784214, 11.253639726135201, 13.562078644316781, 17.064085412239972, 17.064085412239972, 20.998924477322213, 24.999344193489154, 27.911125101650008, 31.19015765588521, 31.19015765588521, 33.15757718842633, 36.10870648723801, 36.10870648723801, 38.49584218672123, 40.096010073188005, 41.55190052726844, 43.781642664148364, 43.781642664148364, 46.20812675428242, 47.40169460402403, 47.40169460402403, 47.506623645759554, 47.5197397759765, 47.72959785944755, 47.70336559901367, 47.70336559901367, 47.6509010781459, 47.55908816662732, 47.88699142205084, 47.88699142205084, 48.33293984942683, 49.237952834395735, 50.274127121534065, 50.274127121534065, 51.27095301802156, 52.320243435376824, 54.62868235355841, 54.62868235355841, 56.53052123501482, 58.15692138191548, 61.22609585267963, 61.22609585267963, 63.35090894782404, 64.87238005298917, 64.87238005298917, 66.15776081424937, 66.91849636683193, 68.16452873744132, 69.37121271739986, 69.37121271739986, 69.86962566564361, 70.26310957215183, 70.669709608877, 70.669709608877, 70.82710317148029, 70.61724508800923, 70.61724508800923, 70.26310957215183, 70.24999344193489, 70.9320322132158, 70.9320322132158, 71.79769680753391, 72.24364523490989, 72.92568400619082, 72.92568400619082, 75.3652842265418, 77.04414889431023, 78.1327877023163, 78.1327877023163, 79.85100076073556, 80.7035492248367, 82.18567193935101, 82.18567193935101, 83.19561396605546, 83.13003331497075, 82.39553002282206, 82.52669132499148, 82.52669132499148, 83.14314944518769, 82.88082684084887, 82.88082684084887, 81.12326539177882, 79.9952781931219, 79.92969754203719, 79.60179428661368, 79.60179428661368, 78.55250386925842, 77.72618766559114, 77.4245166706015, 77.4245166706015, 76.7162456388867, 75.71941974239921, 74.93245192938276, 74.93245192938276, 74.67012932504394, 75.32593583589097, 75.85058104456861, 75.85058104456861, 76.34899399281237, 77.52944571233704, 77.89669735841137, 77.89669735841137, 77.43763280081845, 77.9360457490622, 77.9360457490622, 78.95910390598357, 79.65425880748144, 80.51992340179953, 80.51992340179953, 82.3430655019543, 83.24807848692322, 83.02510427323523, 83.02510427323523, 82.35618163217124, 82.4742268041237, 83.24807848692322, 83.24807848692322, 84.21867212297684, 84.66462055035282, 84.83513024317305, 84.83513024317305, 84.7170850712206, 84.31048503449541, 83.48416883082815, 83.26119461714015, 83.26119461714015, 83.40547204952651, 83.27431074735709, 82.7890139293303, 82.7890139293303, 81.60856220980563, 80.23136853702684, 79.81165237008473, 79.81165237008473, 79.30012329162403, 78.88040712468194, 78.8017103433803, 78.867290994465, 78.867290994465, 78.63120065056006, 78.0672070512316, 78.0672070512316, 77.30647149864905, 75.99485847695496, 74.35534219983737, 74.35534219983737, 73.3060517824821, 73.58149051703785, 74.3684583300543, 74.3684583300543, 74.85375514808112, 74.77505836677946, 75.57514231001285, 76.50638755541564, 76.50638755541564, 76.48015529498177, 76.92610372235775, 77.56879410298787, 77.56879410298787, 78.01474253036385, 78.72301356207865, 78.72301356207865, 79.19519424988852, 79.62802654704755, 80.2182524068099, 80.2182524068099, 80.63796857375199, 80.58550405288423, 81.08391700112799, 81.08391700112799, 82.10697515804937, 83.0513365336691, 84.65150442013588, 84.65150442013588, 85.75325935835892, 85.32042706119987, 84.96629154534247, 84.96629154534247, 85.03187219642716, 85.29419480076598, 85.89753679074525, 85.89753679074525, 86.44841425985678, 86.43529812963983, 86.04181422313161, 86.04181422313161, 85.8450722698775, 85.79260774900973, 85.64833031662339, 85.64833031662339, 85.89753679074525, 86.42218199942289, 86.48776265050759, 86.48776265050759, 86.44841425985678, 86.47464652029065, 86.46153039007372, 86.12051100443325, 86.12051100443325, 86.05493035334855, 86.14674326486713, 86.08116261378242, 86.08116261378242, 85.8450722698775, 85.95000131161302, 85.79260774900973, 85.79260774900973, 84.80889798273917, 83.78583982581779, 83.27431074735709, 83.27431074735709, 83.27431074735709, 83.39235591930957, 84.03504629993967]",83.40716445342545,4.04873719997704,None
reward-effort-pgACC-TUS,R88533/RE002,B_4,0,2024-07-24_15h36.15.857,2024-07-24 15:40:39,None,None,2,,,2.32672119140625,1,3,approach,shifted,reward,None,60,20,20,reject,3.234096399974078,None,0,131,"null",None,None,None
reward-effort-pgACC-TUS,R88533/RE002,B_4,0,2024-07-24_15h36.15.857,2024-07-24 15:40:39,None,None,2,,,2.32672119140625,1,4,approach,shifted,reward,None,70,20,20,reject,2.2687593000009656,None,0,131,"null",None,None,None
reward-effort-pgACC-TUS,R88533/RE002,B_4,0,2024-07-24_15h36.15.857,2024-07-24 15:40:39,None,None,2,,,2.32672119140625,1,5,approach,shifted,reward,None,80,100,105,accept,1.4737688000313938,success,105,236,"[1.4034259332126648, 1.4034259332126648, 1.3640775425618425, 1.337845282127961, 1.337845282127961, 1.337845282127961, 1.3247291519110203, 1.3771936727787835, 1.3771936727787835, 1.3771936727787835, 1.3640775425618425, 1.3771936727787835, 1.3771936727787835, 1.3903098029957242, 1.337845282127961, 1.3640775425618425, 1.3771936727787835, 1.3771936727787835, 1.4165420634296058, 1.4165420634296058, 1.5345872353820729, 1.6264001469006584, 1.6264001469006584, 1.8887227512394744, 2.229742136879935, 2.6494583038220405, 2.6494583038220405, 3.1872196427166126, 3.7380971118281265, 4.498832664410692, 4.498832664410692, 5.7710972954539494, 7.725400697778127, 10.256813829647701, 10.256813829647701, 12.06683979958553, 13.627659295401484, 17.15589832375856, 17.15589832375856, 20.093911492353296, 23.41229243723932, 26.979879856247212, 26.979879856247212, 30.24579628026547, 33.22315783951103, 39.08606804648356, 40.961674667506095, 40.961674667506095, 45.578552503869254, 48.67395923506729, 50.26101099131712, 50.26101099131712, 51.7037853151806, 52.76619186275281, 53.802366149891135, 53.802366149891135, 55.57304372917814, 56.596101886099525, 57.23879226672962, 57.23879226672962, 58.1962697725663, 58.904540804281105, 62.03929592612995, 62.03929592612995, 64.09852837018965, 66.53812859054065, 68.64982555546811, 69.6728837123895, 69.6728837123895, 70.57789669735841, 71.60095485427979, 72.29610975577766, 72.29610975577766, 74.23729702788489, 76.12601977912436, 76.7818262899714, 76.7818262899714, 76.7818262899714, 76.84740694105611, 76.89987146192388, 76.89987146192388, 76.42769077411401, 76.27029721151072, 76.48015529498177, 76.48015529498177, 76.91298759214081, 77.84423283754361, 78.30329739513654, 78.30329739513654, 78.2246006138349, 78.7754780829464, 80.25760079746071, 80.25760079746071, 80.45434275071483, 80.61173631331812, 82.80213005954722, 84.99252380577634, 84.99252380577634, 86.22544004616877, 86.22544004616877, 86.81566590593111, 87.34031111460875, 87.34031111460875, 87.48458854699508, 87.57640145851367, 87.5501691980798, 87.5501691980798, 87.93053697437108, 88.15351118805907, 88.11416279740826, 88.11416279740826, 88.06169827654048, 88.14039505784214, 88.11416279740826, 88.11416279740826, 88.08793053697437, 87.96988536502191, 88.16662731827601, 88.16662731827601, 88.27155636001154, 88.11416279740826, 87.96988536502191, 87.49770467721204, 87.49770467721204, 86.67138847354477, 86.59269169224312, 86.68450460376171, 86.68450460376171, 86.34348521812124, 85.95000131161302, 86.46153039007372, 86.46153039007372, 86.47464652029065, 86.12051100443325, 85.32042706119987, 85.32042706119987, 85.32042706119987, 85.25484641011516, 85.07122058707799, 84.9794076755594, 84.9794076755594, 85.34665932163375, 86.23855617638571, 86.5533433015923, 86.5533433015923, 87.0386401196191, 87.26161433330711, 88.06169827654048, 88.06169827654048, 88.56011122478424, 88.88801448020776, 89.28149838671598, 89.28149838671598, 89.45200807953621, 89.55693712127174, 89.62251777235645, 89.62251777235645, 89.5438209910548]",87.26119123233234,2.6426303000189364,None
reward-effort-pgACC-TUS,R88533/RE002,B_4,0,2024-07-24_15h36.15.857,2024-07-24 15:40:39,None,None,2,,,2.32672119140625,1,6,approach,shifted,reward,None,55,40,36,accept,1.5352596000302583,success,36,272,"[1.5083549749481913, 1.5608194958159545, 1.5608194958159545, 1.5608194958159545, 1.587051756249836, 1.587051756249836, 1.5739356260328952, 1.5739356260328952, 1.5345872353820729, 1.587051756249836, 1.6132840166837175, 1.6132840166837175, 1.6264001469006584, 1.6657485375514807, 1.6657485375514807, 1.6657485375514807, 1.6526324073345402, 1.6919807979853623, 1.7837937095039478, 1.7837937095039478, 2.0067679231919415, 2.295322787964639, 2.911780908160856, 2.911780908160856, 3.3839615959707245, 4.000419716166942, 4.367671362241285, 4.367671362241285, 5.075942393956087, 6.151465071745232, 6.872852233676976, 6.872852233676976, 8.827155636001153, 10.506020303769576, 12.381626924792108, 12.381626924792108, 14.453975499068756, 17.98221452742583, 23.11062144224968, 23.11062144224968, 27.25531859080297, 33.3412030114635, 39.88615198971696, 39.88615198971696, 46.33928805645182, 50.18231421001548, 52.910469295139166, 52.910469295139166, 56.42559219327929, 57.8421342567089, 59.442302143175674, 59.442302143175674, 60.72768290443587, 61.71139267070643, 62.24915400960101, 62.24915400960101, 62.7606830880617, 63.41648959890874, 64.09852837018965, 64.09852837018965, 65.2658639594974, 66.44631567902206, 67.54807061724509, 67.54807061724509, 67.79727709136696, 68.85968363893916, 69.76469662390808, 69.76469662390808, 70.21064505128408, 71.08942577581911, 72.0862516723066, 72.0862516723066, 72.82075496445529, 73.03061304792634, 73.05684530836022, 72.95191626662469, 72.95191626662469, 72.20429684425908, 71.98132263057107, 71.83704519818473, 71.83704519818473, 71.31239998950709, 71.08942577581911, 71.25993546863934, 71.25993546863934, 71.36486451037486, 71.43044516145956, 71.39109677080874, 71.39109677080874, 71.32551611972404, 71.22058707798851, 70.89268382256499, 70.89268382256499, 70.97138060386663, 70.98449673408358, 70.94514834343275, 70.94514834343275, 70.98449673408358, 71.11565803625298, 71.18123868733768, 71.18123868733768, 71.10254190603604, 70.8664515621311, 70.87956769234805, 70.90579995278193, 70.90579995278193, 70.87956769234805, 70.9320322132158, 70.9320322132158, 70.9320322132158, 70.87956769234805, 70.5385483067076, 70.32869022323653, 70.00078696781301, 70.00078696781301, 69.8302772749928, 69.65976758217256]",70.29880264782416,1.93886570003815,None
reward-effort-pgACC-TUS,R88533/RE002,B_4,0,2024-07-24_15h36.15.857,2024-07-24 15:40:39,None,None,2,,,2.32672119140625,1,7,approach,shifted,reward,None,70,80,70,accept,2.7516424999339506,success,70,342,"[3.3052648146690804, 3.3052648146690804, 3.292148684452139, 3.318380944886021, 3.318380944886021, 3.318380944886021, 3.2790325542351986, 3.2790325542351986, 3.3446132053199027, 3.3446132053199027, 3.3314970751029613, 3.3052648146690804, 3.3052648146690804, 3.3052648146690804, 3.3314970751029613, 3.265916424018258, 3.3052648146690804, 3.3052648146690804, 3.436426116838488, 3.488890637706251, 3.6331680700925997, 3.6331680700925997, 3.869258413997534, 4.000419716166942, 4.3020907111565805, 4.3020907111565805, 4.590645575929278, 4.918548831352798, 5.613703732850659, 6.348207024999344, 6.348207024999344, 7.7647490884289505, 10.479788043335695, 12.263581752839642, 12.263581752839642, 15.87051756249836, 19.595498544109546, 23.517221478974843, 23.517221478974843, 28.09475092468718, 32.462422286928465, 38.01054536869442, 38.01054536869442, 42.71923611657616, 48.26735919834212, 50.85123685107946, 54.11715327509772, 54.11715327509772, 56.438708323496236, 57.881482647359725, 59.66527635686367, 59.66527635686367, 61.698276540489495, 63.232863775871564, 63.31156055717321, 63.31156055717321, 63.14105086435298, 63.19351538522074, 63.84932189606778, 63.84932189606778, 64.61005744865035, 65.04288974580939, 66.18399307468324, 66.18399307468324, 67.71858031006532, 68.07271582592273, 68.85968363893916, 69.0957739828441, 69.0957739828441, 68.75475459720364, 68.07271582592273, 67.3906770546418, 67.3906770546418, 67.12835445030298, 66.60370924162535, 67.12835445030298, 67.12835445030298, 68.38750295112929, 69.43679336848456, 69.65976758217256, 69.77781275412502, 69.77781275412502, 70.17129666063325, 70.7352902599617, 70.7352902599617, 71.27305159885627, 72.07313554208966, 72.78140657380446, 72.4666194485979, 72.4666194485979, 71.58783872406286, 71.11565803625298, 70.97138060386663, 70.97138060386663, 71.03696125495134, 71.82392906796778, 74.55208415309147, 74.55208415309147, 76.74247789932058, 77.76553605624197, 78.59185225990923, 78.57873612969229, 78.57873612969229, 78.78859421316335, 79.90346528160332, 80.38876209963013, 80.38876209963013, 81.81842029327667, 84.00881403950578, 84.24490438341073, 83.72025917473309, 83.72025917473309, 83.6284462632145, 84.21867212297684, 84.94005928490857, 84.94005928490857, 85.95000131161302, 85.95000131161302, 86.2647884368196, 86.2647884368196, 86.21232391595184, 85.87130453031138, 85.04498832664412, 85.04498832664412, 83.99569790928885, 83.26119461714015, 82.84147845019805, 82.84147845019805, 82.25125259043573, 81.72660738175809, 82.35618163217124, 82.65785262716088, 82.65785262716088, 82.29060098108654, 80.88717504787387, 80.19202014637601, 80.19202014637601, 79.26077490097322, 78.88040712468194, 78.94598777576664, 78.94598777576664, 79.44440072401039, 79.49686524487815, 79.11649746858687, 79.11649746858687, 78.8017103433803, 78.67054904121088, 78.7098974318617, 78.867290994465, 78.867290994465, 79.2870071614071, 79.22142651032239, 79.22142651032239, 78.95910390598357, 79.85100076073556, 80.41499436006401, 80.41499436006401, 80.17890401615907, 79.45751685422732, 79.7067233283492]",81.34772045887838,2.66374879993964,None
reward-effort-pgACC-TUS,R88533/RE002,B_4,0,2024-07-24_15h36.15.857,2024-07-24 15:40:39,None,None,2,,,2.32672119140625,1,8,approach,shifted,reward,0.73,85,80,77,reject,2.4227511000353843,None,0,342,"null",None,None,None
reward-effort-pgACC-TUS,R88533/RE002,B_4,0,2024-07-24_15h36.15.857,2024-07-24 15:40:39,None,None,2,,,2.32672119140625,1,9,approach,shifted,reward,None,100,20,19,reject,2.1092516999924555,None,0,342,"null",None,None,None
reward-effort-pgACC-TUS,R88533/RE002,B_4,0,2024-07-24_15h36.15.857,2024-07-24 15:40:39,None,None,2,,,2.32672119140625,1,10,approach,shifted,reward,None,50,60,63,accept,1.26021950005088,success,63,405,"[2.164161485795231, 2.164161485795231, 2.164161485795231, 2.1903937462291125, 2.1903937462291125, 2.229742136879935, 2.282206657747698, 2.295322787964639, 2.295322787964639, 2.295322787964639, 2.3871356994832245, 2.47894861100181, 2.47894861100181, 2.7806196059914483, 3.160987382282731, 3.515122898140133, 3.515122898140133, 3.7643293722620075, 4.079116497468587, 4.551297185278456, 4.551297185278456, 4.971013352220561, 6.295742504131581, 7.895910390598358, 7.895910390598358, 10.965084861362504, 12.8931560032528, 17.15589832375856, 17.15589832375856, 23.858240864615304, 28.894834867920572, 34.36426116838488, 39.66317777602896, 39.66317777602896, 41.47320374596679, 45.11948794627633, 48.2280108076913, 48.2280108076913, 49.67078513155479, 50.68072715825923, 52.00545631017025, 52.00545631017025, 52.831772513837514, 52.93670155557304, 52.66126282101729, 52.66126282101729, 52.03168857060413, 51.32341753888932, 51.113559455418276, 51.113559455418276, 51.25783688780462, 51.454578841058726, 51.82183048713308, 51.82183048713308, 52.47763699798011, 53.64497258728784, 54.74672752551088, 54.74672752551088, 56.37312767241153, 57.80278586605808, 59.71774087773143, 59.71774087773143, 63.10170247370216, 64.79368327168751, 66.49878019988982, 66.49878019988982, 67.57430287767897, 68.49243199286482, 68.676057815902, 68.676057815902, 68.59736103460035, 67.91532226331944, 66.73487054379476, 66.73487054379476, 64.97730909472469, 62.48524435350594, 59.56034731512815, 59.56034731512815, 59.07505049710133, 58.838960153196396, 58.878308543847226, 58.878308543847226, 59.28490858057239, 59.66527635686367, 60.33419899792764, 60.33419899792764, 60.93754098790692, 61.04247002964246, 60.81949581595446, 60.81949581595446, 59.573463445345084, 58.91765693449804, 58.497940767555946, 58.497940767555946, 58.40612785603736, 58.58975367907453, 58.60286980929147, 58.60286980929147, 58.60286980929147, 59.350489231657086, 59.96694735185331, 59.96694735185331, 60.20303769575824, 61.06870229007634, 61.35725715484903, 61.35725715484903, 61.317908764198215, 61.96059914482831, 63.009889562183574, 64.51824453713176, 64.51824453713176, 65.35767687101598, 65.80362529839196, 65.68558012643949, 65.68558012643949, 65.64623173578867, 65.67246399622255, 66.0397156422969, 66.0397156422969, 66.21022533511713, 65.84297368904278]",62.52609787385381,2.0105738999554887,None
reward-effort-pgACC-TUS,R88533/RE002,B_4,0,2024-07-24_15h36.15.857,2024-07-24 15:40:39,None,None,2,,,2.32672119140625,1,11,approach,shifted,reward,None,55,40,41,accept,1.9688330999342725,success,41,446,"[2.9773615592455602, 2.9773615592455602, 2.9642454290286193, 2.9642454290286193, 2.990477689462501, 2.938013168594738, 2.9642454290286193, 2.9642454290286193, 3.0691744707641457, 3.1478712520657903, 3.3314970751029613, 3.6331680700925997, 3.6331680700925997, 4.052884237034705, 4.538181055061514, 4.748039138532567, 4.748039138532567, 5.154639175257731, 5.377613388945726, 5.44319404003043, 5.44319404003043, 5.626819863067601, 5.79732955588783, 6.151465071745232, 6.151465071745232, 6.426903806300989, 7.5155426143070745, 9.850213792922537, 9.850213792922537, 12.079955929802471, 14.72941423362451, 18.782298470659217, 18.782298470659217, 23.92382151570001, 27.39959602318932, 31.111460874583564, 31.111460874583564, 35.256158023136855, 38.87620996301251, 40.71246819338422, 40.71246819338422, 42.87662967917946, 46.352404186668764, 47.84764303140002, 48.66084310485034, 48.66084310485034, 49.19860444374492, 49.67078513155479, 49.959339996327486, 49.959339996327486, 50.628262637391465, 51.74313370583143, 52.24154665407518, 52.24154665407518, 52.18908213320742, 52.228430523858236, 52.68749508145116, 52.68749508145116, 53.264604810996566, 54.32701135856877, 56.09768893785577, 56.09768893785577, 57.27814065738045, 58.51105689777288, 60.150573174890475, 60.150573174890475, 61.94748301461137, 63.73127672411532, 65.25274782928044, 67.18081897117074, 67.18081897117074, 67.62676739854673, 67.62676739854673, 67.62676739854673, 69.76469662390808, 70.84021930169723, 71.77146454710002, 71.77146454710002, 71.69276776579838, 70.9320322132158, 70.68282573909393, 70.3549224836704, 70.3549224836704, 70.23687731171795, 69.71223210304032, 68.676057815902, 68.676057815902, 67.88909000288554, 67.48248996616039, 67.48248996616039, 67.40379318485874, 67.20705123160464, 66.7479866740117, 66.7479866740117, 67.23328349203851, 67.57430287767897, 67.48248996616039, 67.48248996616039, 67.54807061724509, 67.5874190078959, 67.5874190078959, 67.5874190078959, 68.0989480863566, 69.56795467065398, 69.9614385771622, 69.80404501455891, 69.80404501455891, 69.68599984260644, 69.54172241022009, 68.89903202958999, 68.89903202958999, 68.30880616982765, 67.46937383594344, 66.682406022927, 66.682406022927, 66.14464468403243, 65.80362529839196, 65.76427690774113, 65.76427690774113, 65.73804464730726, 65.84297368904278, 65.9741349912122, 65.9741349912122, 65.9741349912122, 65.54130269405314, 65.35767687101598, 65.35767687101598, 65.2658639594974]",67.87941416911896,2.1255824000108987,None
reward-effort-pgACC-TUS,R88533/RE002,B_4,0,2024-07-24_15h36.15.857,2024-07-24 15:40:39,None,None,2,,,2.32672119140625,1,12,approach,shifted,reward,None,80,60,68,reject,3.6147750999080017,None,0,446,"null",None,None,None
reward-effort-pgACC-TUS,R88533/RE002,B_4,0,2024-07-24_15h36.15.857,2024-07-24 15:40:39,None,None,2,,,2.32672119140625,1,13,approach,shifted,reward,None,90,40,27,reject,1.5480643999762833,None,0,446,"null",None,None,None
reward-effort-pgACC-TUS,R88533/RE002,B_4,0,2024-07-24_15h36.15.857,2024-07-24 15:40:39,None,None,2,,,2.32672119140625,1,14,approach,shifted,reward,None,50,20,21,accept,0.9813320999965072,success,21,467,"[0.9443613756197372, 0.9705936360536188, 0.9705936360536188, 0.9968258964875003, 0.9837097662705595, 0.9837097662705595, 0.9574775058366779, 0.9574775058366779, 0.9312452454027963, 0.9312452454027963, 0.9312452454027963, 0.9574775058366779, 0.9837097662705595, 0.9837097662705595, 0.9705936360536188, 0.9705936360536188, 0.9968258964875003, 0.9968258964875003, 1.0361742871383228, 1.2591485008263161, 1.7706775792870073, 1.7706775792870073, 1.9018388814564149, 2.269090527530757, 2.269090527530757, 2.846200257076152, 3.934839065082238, 4.6693423572309225, 4.6693423572309225, 5.351381128511844, 6.741690931507568, 10.41420739225099, 12.919388263686681, 12.919388263686681, 17.300175756144906, 23.62215052071037, 27.452060544057083, 27.452060544057083, 31.92466094803389, 36.16117100810577, 36.16117100810577, 40.27963589622518, 41.36827470423126, 44.25382335195824, 47.834526901183075, 47.834526901183075, 49.68390126177173, 50.91681750216416, 50.91681750216416, 51.848062747566956, 52.84488864405446, 53.67120484772173, 54.32701135856877, 54.32701135856877, 54.8516565672464, 55.310721124839326, 56.202617979591295, 56.202617979591295, 56.67479866740117, 57.514231001285374, 58.235618163217126, 58.235618163217126, 58.73403111146087, 59.835786049683904, 59.835786049683904, 61.4097216757168, 61.7638571915742, 62.209805618950185, 62.209805618950185, 62.52459274415676, 62.69510243697699, 63.009889562183574, 63.57388316151202, 63.57388316151202, 63.67881220324756, 63.586999291728965, 63.57388316151202, 63.57388316151202, 63.49518638021038, 63.37714120825792, 63.21974764565462, 63.21974764565462, 63.180399255003806, 63.02300569240052, 63.02300569240052, 62.537708874373706, 61.68516041027255, 60.20303769575824, 60.20303769575824, 59.652160226646735, 59.49476666404344, 59.27179245035544, 59.27179245035544, 59.07505049710133, 58.82584402297945, 58.95700532514887, 58.95700532514887, 59.743973138165316, 60.17680543532437, 61.38348941528291, 61.38348941528291, 61.59334749875397, 61.39660554549986, 60.97688937855775, 60.97688937855775, 60.478476430314, 60.17680543532437, 60.17680543532437, 60.17680543532437, 61.21297972246268, 61.94748301461137, 62.563941134807585, 63.03612182261745, 63.03612182261745, 63.25909603630545, 63.41648959890874, 63.41648959890874, 63.50830251042733, 64.37396710474542, 65.04288974580939, 65.34456074079903]",61.66774390949267,2.008691200055182,None
reward-effort-pgACC-TUS,R88533/RE002,B_4,0,2024-07-24_15h36.15.857,2024-07-24 15:40:39,None,None,2,,,2.32672119140625,1,15,approach,shifted,reward,0.392,50,20,20,accept,1.3944662999128923,success,20,487,"[0.49841294824375015, 0.49841294824375015, 0.49841294824375015, 0.49841294824375015, 0.4590645575929278, 0.49841294824375015, 0.49841294824375015, 0.49841294824375015, 0.4852968180268094, 0.511529078460691, 0.5246452086776318, 0.5246452086776318, 0.4852968180268094, 0.5246452086776318, 0.49841294824375015, 0.49841294824375015, 0.5246452086776318, 0.4852968180268094, 0.563993599328454, 0.563993599328454, 0.6951549014978621, 0.9181291151858556, 1.3903098029957242, 1.3903098029957242, 2.216626006662994, 3.357729335536843, 4.551297185278456, 4.551297185278456, 5.692400514152304, 8.853387896435036, 12.04060753915165, 12.04060753915165, 17.706775792870072, 23.241782744419087, 28.38330578945988, 28.38330578945988, 31.937777078250836, 37.26292594632879, 39.72875842711366, 39.72875842711366, 40.83051336533669, 42.64053933527452, 46.89016552556334, 46.89016552556334, 48.765772146585874, 49.94622386611054, 51.12667558563522, 51.12667558563522, 52.136617612339656, 52.98916607644081, 53.421998373599855, 53.421998373599855, 53.67120484772173, 54.668030744209226, 55.67797277091368, 55.67797277091368, 56.53052123501482, 57.26502452716351, 58.32743107473571, 58.32743107473571, 58.32743107473571, 58.32743107473571, 58.838960153196396, 58.838960153196396, 60.33419899792764, 61.698276540489495, 61.698276540489495, 62.24915400960101, 62.944308911098865, 64.13787676084048, 64.13787676084048, 64.13787676084048, 63.364025078040974, 63.06235408305134, 63.06235408305134, 62.69510243697699, 62.66887017654311, 62.60328952545841, 62.60328952545841, 62.445895962855126, 62.52459274415676, 62.498360483722884, 62.498360483722884, 62.15734109808242, 61.65892814983868, 61.65892814983868, 61.65892814983868, 61.64581201962173, 61.71139267070643, 62.026179795913016, 62.026179795913016, 61.88190236352666, 61.97371527504525, 62.209805618950185, 62.209805618950185, 62.72133469741088, 63.07547021326828, 62.90496052044805, 62.90496052044805, 62.826263739146405, 62.90496052044805, 63.10170247370216, 63.10170247370216, 63.77062511476615, 65.00354135515857, 65.4626059127515, 65.4626059127515, 65.1740510479788, 64.54447679756564, 64.1116445004066, 64.1116445004066, 63.626347682379794, 63.08858634348522, 62.55082500459065, 62.55082500459065, 61.96059914482831, 60.79326355552058, 59.87513444033472, 59.87513444033472, 59.50788279426038]",62.261000836893736,1.9864050999749452,None
reward-effort-pgACC-TUS,R88533/RE002,B_4,0,2024-07-24_15h36.15.857,2024-07-24 15:40:39,None,None,2,,,2.32672119140625,1,16,approach,shifted,reward,None,95,60,56,reject,2.380710900062695,None,0,487,"null",None,None,None
reward-effort-pgACC-TUS,R88533/RE002,B_4,0,2024-07-24_15h36.15.857,2024-07-24 15:40:39,None,None,2,,,2.32672119140625,1,17,approach,shifted,reward,None,70,60,49,accept,0.8730043999385089,success,49,536,"[0.49841294824375015, 0.511529078460691, 0.511529078460691, 0.5246452086776318, 0.5246452086776318, 0.4721806878098686, 0.49841294824375015, 0.511529078460691, 0.511529078460691, 0.4852968180268094, 0.4852968180268094, 0.5508774691115134, 0.5508774691115134, 0.563993599328454, 0.6426903806300989, 0.8918968547519739, 0.8918968547519739, 1.5739356260328952, 2.3346711786154613, 3.0691744707641457, 3.0691744707641457, 4.000419716166942, 5.154639175257731, 6.859736103460035, 6.859736103460035, 11.043781642664149, 13.07678182628997, 17.064085412239972, 24.054982817869416, 24.054982817869416, 29.301434904645735, 35.29550641378768, 35.29550641378768, 39.85991972928307, 41.43385535531597, 43.086487762650506, 44.97521051388998, 44.97521051388998, 46.92951391621416, 47.91322368248472, 48.09684950552189, 48.09684950552189, 48.188662417040476, 48.38540437029459, 48.8051205372367, 48.8051205372367, 49.32976574591433, 50.16919807979854, 51.205372366936864, 51.205372366936864, 52.530101518847886, 53.841714540541965, 55.113979171585214, 55.113979171585214, 56.89777288108916, 58.1962697725663, 59.75708926838226, 59.75708926838226, 62.472128223289005, 65.41014139188374, 66.8791479761811, 66.8791479761811, 67.57430287767897, 68.30880616982765, 67.95467065397025, 67.95467065397025, 66.90538023661499, 65.80362529839196, 64.688754229952, 64.688754229952, 63.90178641693554, 63.84932189606778, 63.87555415650167, 63.87555415650167, 63.954250937803316, 63.96736706802025, 64.43954775583012, 64.43954775583012, 65.56753495448703, 67.77104483093308, 69.29251593609821, 69.79092888434197, 69.79092888434197, 70.39427087432124, 71.62718711471368, 73.52902599617009, 73.52902599617009, 73.68641955877338, 72.62401301120117, 73.46344534508539, 73.46344534508539, 75.32593583589097, 76.82117468062224, 77.13596180582881, 77.13596180582881, 77.7130715353742, 78.63120065056006, 79.1558458592377, 79.1558458592377, 79.95592980247108, 79.87723302116943, 79.40505233335956, 79.40505233335956, 79.31323942184098, 79.91658141182026, 80.08709110464048, 80.08709110464048, 79.26077490097322, 78.60496839012617, 78.38199417643818, 78.38199417643818, 78.35576191600431, 77.54256184255397, 77.01791663387634, 77.01791663387634, 77.30647149864905, 77.85734896776056, 77.63437475407255, 77.12284567561187, 77.12284567561187, 77.10972954539493, 77.2277747173474, 77.21465858713046, 77.21465858713046, 76.92610372235775, 76.75559402953752, 76.84740694105611, 76.84740694105611, 77.05726502452717, 77.55567797277091, 78.10655544188243, 78.10655544188243, 78.67054904121088, 78.90663938511582, 79.03780068728523, 79.03780068728523, 79.49686524487815, 80.03462658377273, 81.01833635004328, 81.01833635004328, 81.35935573568375, 82.2774848508696, 83.57598174234674, 83.57598174234674, 83.54974948191285, 83.45793657039428, 83.37923978909262, 83.37923978909262, 83.22184622648933, 83.64156239343144, 84.29736890427849, 84.29736890427849, 83.65467852364839]",79.33206741521693,2.5433375999564305,None
reward-effort-pgACC-TUS,R88533/RE002,B_4,0,2024-07-24_15h36.15.857,2024-07-24 15:40:39,None,None,2,,,2.32672119140625,1,18,approach,shifted,reward,None,80,40,38,reject,3.5289074999745935,None,0,536,"null",None,None,None
reward-effort-pgACC-TUS,R88533/RE002,B_4,0,2024-07-24_15h36.15.857,2024-07-24 15:40:39,None,None,2,,,2.32672119140625,1,19,approach,shifted,reward,None,65,60,73,accept,1.3393762999912724,success,73,609,"[0.4197161669421054, 0.38036777629128304, 0.38036777629128304, 0.4066000367251646, 0.4066000367251646, 0.43283229715904614, 0.43283229715904614, 0.43283229715904614, 0.5246452086776318, 0.563993599328454, 0.563993599328454, 0.6295742504131581, 0.6295742504131581, 0.9574775058366779, 1.5214711051651322, 2.5838776527373364, 2.5838776527373364, 4.551297185278456, 9.155058891424673, 12.434091445659872, 12.434091445659872, 16.775530547467273, 22.97946014008027, 27.176621809501324, 27.176621809501324, 32.88213845387057, 37.93184858739277, 40.26651976600824, 40.26651976600824, 42.41756512158653, 44.34563626347682, 46.24747514493323, 46.24747514493323, 48.54279793289788, 49.68390126177173, 50.628262637391465, 51.139791715852155, 51.139791715852155, 51.939875659085544, 52.7924241231867, 52.96293381600693, 52.96293381600693, 53.225256420345744, 54.248314577267124, 55.24514047375463, 55.24514047375463, 56.29443089110989, 57.015818053041635, 57.69785682432255, 57.69785682432255, 57.92083103801055, 58.24873429343407, 58.1962697725663, 58.104456861047716, 58.104456861047716, 57.97329555887831, 57.89459877757667, 57.92083103801055, 57.92083103801055, 58.05199234017996, 58.40612785603736, 58.458592376905116, 58.458592376905116, 58.34054720495266, 58.31431494451878, 58.32743107473571, 58.32743107473571, 58.458592376905116, 58.615985939508406, 58.74714724167781, 58.74714724167781, 59.11439888775216, 59.612811835995906, 61.4097216757168, 61.4097216757168, 62.93119278088193, 64.50512840691482, 66.23645759555102, 66.23645759555102, 67.5874190078959, 69.04330946197635, 69.29251593609821, 69.29251593609821, 69.80404501455891, 70.26310957215183, 70.51231604627371, 70.51231604627371, 71.01072899451746, 71.07630964560217, 71.27305159885627, 71.27305159885627, 71.75834841688308, 71.9550903701372, 71.90262584926943, 71.90262584926943, 71.86327745861861, 71.71900002623227, 71.85016132840167, 71.85016132840167, 72.04690328165579, 71.96820650035414, 71.78458067731697, 71.78458067731697, 71.75834841688308, 71.71900002623227, 71.2468193384224, 70.90579995278193, 70.90579995278193, 70.59101282757536, 70.38115474410431, 70.38115474410431, 70.38115474410431, 70.36803861388736, 70.24999344193489, 70.1581805304163, 70.1581805304163, 70.1581805304163, 70.34180635345348, 70.21064505128408, 70.21064505128408, 69.86962566564361, 70.36803861388736, 70.68282573909393, 70.68282573909393, 70.97138060386663, 72.12560006295743, 73.22735500118046, 73.22735500118046, 73.60772277747174, 75.52267778914509, 76.48015529498177, 77.43763280081845, 77.43763280081845, 77.80488444689279, 78.38199417643818, 78.7098974318617, 78.7098974318617, 78.76236195272946, 78.8017103433803, 79.07714907793604, 79.07714907793604, 79.18207811967157, 78.89352325489888, 77.98851026992996, 77.98851026992996, 77.3589360195168, 76.92610372235775, 76.83429081083916, 76.83429081083916, 76.55885207628342, 76.12601977912436, 75.75876813305003, 75.75876813305003, 75.27347131502322, 75.35216809632486, 75.3652842265418, 75.3652842265418, 75.05049710133522, 72.97814852705858, 71.94197423992026, 71.94197423992026, 71.8895097190525, 74.34222606962042, 76.0735552582566, 76.0735552582566, 76.46703916476483, 75.20789066393851, 74.91933579916581, 75.6538390913145, 75.6538390913145, 75.6538390913145, 74.49961963222371, 74.81440675743029, 74.81440675743029, 76.45392303454788, 76.63754885758506, 76.46703916476483, 76.46703916476483, 77.16219406626269, 78.36887804622124, 78.78859421316335, 78.78859421316335, 78.7098974318617, 78.09343931166549, 77.96227800949607]",76.20987700510155,3.077455300022848,None
reward-effort-pgACC-TUS,R88533/RE002,B_4,0,2024-07-24_15h36.15.857,2024-07-24 15:40:39,None,None,2,,,2.32672119140625,1,20,approach,shifted,reward,None,60,40,40,accept,1.5209469000110403,success,40,649,"[0.31478712520657903, 0.3016709949896383, 0.3016709949896383, 0.28855486477269743, 0.35413551585740144, 0.43283229715904614, 0.43283229715904614, 0.511529078460691, 0.5902258597623358, 0.7213871619317437, 0.7213871619317437, 0.9181291151858556, 1.337845282127961, 2.1903937462291125, 2.1903937462291125, 3.3839615959707245, 4.721806878098686, 6.702342540856746, 6.702342540856746, 9.548542797932898, 12.827575352168097, 15.791820781196716, 22.46793106161958, 22.46793106161958, 26.835602423860866, 31.38689960913932, 33.65599013667008, 37.5514808111015, 37.5514808111015, 40.00419716166942, 41.26334566249574, 41.46008761574985, 41.46008761574985, 41.47320374596679, 43.217649064819916, 45.85399123842501, 45.85399123842501, 48.20177854725742, 48.79200440701975, 49.959339996327486, 49.959339996327486, 51.139791715852155, 52.37270795624459, 53.579391936203145, 53.579391936203145, 54.733611395293934, 55.99275989612025, 56.80595996957057, 56.80595996957057, 57.133863224994094, 57.14697935521104, 57.00270192282469, 57.00270192282469, 56.53052123501482, 55.96652763568637, 55.52057920831038, 55.822250203300015, 55.822250203300015, 56.176385719157416, 56.72726318826893, 57.09451483434328, 57.09451483434328, 57.09451483434328, 57.02893418325857, 57.44865035020068, 57.44865035020068, 57.76343747540725, 58.235618163217126, 58.878308543847226, 58.878308543847226, 60.189921565541304, 62.13110883764854, 63.42960572912568, 63.980483198237195, 63.980483198237195, 64.63628970908422, 65.98725112142914, 65.98725112142914, 66.91849636683193, 67.44314157550956, 67.82350935180085, 67.82350935180085, 68.68917394611894, 69.35809658718291, 69.39744497783374, 69.39744497783374, 69.56795467065398, 69.60730306130479, 69.56795467065398, 69.43679336848456, 69.43679336848456, 69.52860628000315, 69.7384643634742, 69.7384643634742, 69.7384643634742, 69.60730306130479, 69.79092888434197, 69.92209018651138, 69.92209018651138, 69.89585792607748, 69.46302562891844, 68.68917394611894, 68.68917394611894, 67.96778678418718, 67.63988352876368, 67.41690931507569, 67.41690931507569, 67.28574801290628, 67.5218383568112, 67.53495448702814, 67.53495448702814, 67.5218383568112, 67.7448125704992, 68.0989480863566, 68.0989480863566, 68.59736103460035, 68.41373521156318, 67.71858031006532, 67.71858031006532, 68.53178038351565, 68.75475459720364, 68.79410298785447, 68.79410298785447, 69.85650953542667, 70.61724508800923, 71.3779806405918, 71.3779806405918, 71.94197423992026, 71.92885810970331, 72.21741297447602, 72.21741297447602, 73.72576794942421, 74.80129062721335, 77.39828441016763, 77.39828441016763, 79.32635555205792, 80.25760079746071, 80.19202014637601, 80.19202014637601]",70.21516044037516,2.3090730999829248,None
reward-effort-pgACC-TUS,R88533/RE002,B_4,0,2024-07-24_15h36.15.857,2024-07-24 15:40:39,None,None,2,,,2.32672119140625,1,21,approach,shifted,reward,None,65,60,56,accept,1.5301594999618828,failure,0,649,"[0.6164581201962174, 0.6164581201962174, 0.5902258597623358, 0.5902258597623358, 0.563993599328454, 0.5902258597623358, 0.5902258597623358, 0.6164581201962174, 0.6164581201962174, 0.6295742504131581, 0.6295742504131581, 0.6295742504131581, 0.6558065108470397, 0.7345032921486845, 0.7345032921486845, 0.7345032921486845, 0.8918968547519739, 1.0755226777891451, 1.2591485008263161, 1.2591485008263161, 1.6788646677684216, 2.2428582670968757, 2.675690564255922, 3.2134519031504944, 3.2134519031504944, 3.7643293722620075, 4.525064924844574, 4.525064924844574, 5.416961779596548, 6.374439285433225, 7.92214265103224, 7.92214265103224, 9.220639542509378, 11.174942944833557, 12.145536580887176, 12.145536580887176, 13.444033472364314, 16.19842081792188, 19.398756590855434, 19.398756590855434, 23.818892473964482, 26.95364759581333, 30.691744707641455, 30.691744707641455, 31.71480286456284, 33.01329975603998, 34.36426116838488, 35.347970934655436, 35.347970934655436, 35.74145484116366, 34.42984181946958, 33.02641588625692, 33.02641588625692, 32.88213845387057, 34.08882243382912, 35.6889903202959, 35.6889903202959, 38.325332493901, 39.781222947981426, 40.961674667506095, 40.961674667506095, 42.535610293538994, 43.92592009653472, 47.860759161616954, 47.860759161616954, 49.631436740903965, 50.654494897825344, 51.520159492143435, 51.520159492143435, 52.42517247711235, 53.23837255056269, 53.73678549880643, 53.73678549880643, 54.48440492117206, 54.82542430681252, 54.96970173919886, 55.0746307809344, 55.0746307809344, 55.048398520500506, 54.956585608981925, 54.70737913486005, 54.70737913486005, 54.61556622334146, 54.733611395293934, 54.602450093124524, 54.602450093124524, 54.45817266073818, 54.83854043702946, 55.19267595288686, 55.19267595288686, 55.33695338527321, 56.38624380262848, 57.18632774586187, 57.18632774586187, 57.750321345190315, 58.1962697725663, 58.36677946538653, 58.36677946538653, 58.37989559560347, 58.40612785603736, 58.458592376905116, 58.458592376905116, 58.288082684084884, 57.868366517142775, 57.31748904803127, 57.31748904803127, 56.68791479761811, 56.16326958894048, 55.61239211982897, 55.61239211982897, 55.54681146874426, 55.53369533852732, 56.09768893785577, 56.32066315154377, 56.32066315154377, 56.55675349544871, 56.779727709136694, 56.779727709136694, 57.00270192282469, 57.14697935521104, 57.09451483434328, 57.65850843367173, 57.65850843367173, 58.34054720495266, 59.389837622307915, 60.17680543532437, 60.17680543532437, 61.632695889404786, 61.632695889404786, 61.80320558222502, 61.80320558222502, 62.73445082762782, 63.75750898454919, 64.15099289105743, 64.15099289105743, 64.16410902127436, 64.32150258387766, 64.70187036016894, 64.70187036016894, 65.31832848036515, 66.01348338186301, 66.24957372576795, 66.24957372576795, 66.22334146533406, 66.38073502793735, 67.23328349203851, 67.23328349203851, 67.61365126832979, 67.63988352876368, 67.60053513811285, 67.60053513811285, 67.36444479420791, 67.33821253377403, 67.37756092442486, 67.57430287767897, 67.57430287767897, 67.37756092442486, 67.37756092442486, 68.8072191180714, 68.8072191180714, 69.37121271739986, 69.42367723826763, 68.92526429002388, 68.92526429002388, 69.00396107132552, 69.81716114477584, 70.52543217649064, 70.52543217649064, 71.35174838015791, 72.02067102122189, 73.38474856378375, 73.38474856378375, 72.88633561553999, 72.17806458382519, 72.03378715143884, 72.03378715143884, 71.41732903124263, 70.99761286430052, 71.01072899451746, 71.01072899451746, 70.69594186931087, 70.47296765562288, 70.3549224836704, 70.3549224836704, 70.00078696781301, 69.93520631672831, 70.0270192282469, 70.0270192282469, 70.39427087432124, 70.45985152540595, 70.61724508800923, 70.61724508800923, 71.08942577581911, 71.36486451037486, 70.94514834343275, 70.98449673408358, 70.98449673408358, 70.97138060386663, 70.98449673408358, 70.98449673408358, 70.84021930169723, 71.20747094777157, 72.0862516723066, 72.0862516723066, 72.09936780252355, 71.81081293775084, 71.9550903701372, 71.9550903701372, 73.34540017313293, 75.27347131502322, 77.88358122819443, 77.88358122819443, 79.6411426772645, 80.25760079746071, 80.44122662049789, 80.42811049028094, 80.42811049028094, 80.36252983919624, 79.9952781931219, 79.81165237008473, 79.81165237008473, 79.71983945856614, 79.95592980247108, 79.98216206290496, 79.98216206290496, 78.38199417643818, 75.86369717478554, 72.16494845360825, 72.16494845360825, 71.4435612916765, 71.23370320820544, 71.16812255712075, 71.16812255712075, 70.5385483067076, 69.13512237349492, 67.9022061331025, 67.9022061331025, 68.71540620655281, 68.9383804202408, 69.13512237349492, 69.13512237349492, 69.6466514519556, 70.13194826998243, 70.49919991605677, 70.49919991605677, 71.35174838015791, 71.99443876078801, 72.29610975577766, 72.29610975577766, 74.22418089766796, 74.42092285092207, 74.11925185593242, 74.11925185593242, 74.61766480417617, 75.61449070066367, 75.68007135174838, 75.68007135174838, 74.64389706461006, 74.27664541853571, 75.50956165892815, 75.70630361218225, 75.70630361218225, 75.86369717478554, 77.08349728496104, 77.69995540515725, 77.69995540515725, 77.14907793604576, 76.91298759214081, 76.95233598279164, 76.95233598279164, 77.41140054038456, 77.75241992602503, 77.7130715353742, 77.7130715353742, 77.05726502452717, 76.76871015975446, 76.46703916476483, 76.46703916476483, 75.7850003934839, 75.32593583589097, 75.48332939849428, 75.48332939849428, 75.40463261719262, 74.3684583300543, 73.52902599617009, 73.72576794942421, 73.72576794942421, 74.76194223656253, 74.47338737178983, 74.61766480417617, 74.61766480417617, 75.91616169565332, 77.18842632669657, 78.01474253036385, 78.01474253036385, 77.94916187927913, 77.14907793604576, 76.5195036856326, 76.5195036856326, 76.58508433671729, 76.50638755541564]",0,5.003971599973738,None
reward-effort-pgACC-TUS,R88533/RE002,B_4,0,2024-07-24_15h36.15.857,2024-07-24 15:40:39,None,None,2,,,2.32672119140625,1,22,approach,shifted,reward,None,80,80,62,reject,1.7067402000539005,None,0,649,"null",None,None,None
reward-effort-pgACC-TUS,R88533/RE002,B_4,0,2024-07-24_15h36.15.857,2024-07-24 15:40:39,None,None,2,,,2.32672119140625,1,23,approach,shifted,reward,None,70,60,49,accept,2.434659000020474,success,49,698,"[-0.11804517195246715, -0.06558065108470397, -0.06558065108470397, -0.06558065108470397, -0.10492904173552635, -0.09181291151858556, -0.06558065108470397, -0.06558065108470397, -0.06558065108470397, -0.10492904173552635, -0.13116130216940794, -0.10492904173552635, -0.10492904173552635, -0.14427743238634871, -0.11804517195246715, -0.13116130216940794, -0.13116130216940794, -0.09181291151858556, -0.09181291151858556, -0.07869678130164476, -0.07869678130164476, -0.052464520867763174, -0.052464520867763174, 0.052464520867763174, 0.052464520867763174, 0.1967419532541119, 0.2623226043388159, 0.4066000367251646, 0.563993599328454, 0.563993599328454, 1.0492904173552635, 2.0067679231919415, 3.095406731198027, 3.095406731198027, 4.695574617664804, 6.308858634348521, 10.256813829647701, 10.256813829647701, 12.263581752839642, 15.752472390545893, 15.752472390545893, 19.63484693476037, 24.041866687652476, 26.94053146559639, 29.826080113323368, 29.826080113323368, 33.52482883450067, 37.499016290233726, 40.59442302143176, 40.59442302143176, 41.709294089871726, 42.98155872091498, 45.08013955562551, 45.08013955562551, 47.91322368248472, 49.29041735526351, 49.959339996327486, 49.959339996327486, 51.047978804333574, 52.09726922168883, 53.92041132184361, 53.92041132184361, 55.90094698460166, 58.09134073083078, 59.87513444033472, 59.87513444033472, 64.0460638493219, 65.93478660056137, 68.76787072742057, 68.76787072742057, 69.63353532173868, 70.59101282757536, 71.50914194276122, 71.50914194276122, 72.4666194485979, 75.61449070066367, 76.82117468062224, 76.82117468062224, 75.96862621652107, 75.96862621652107, 77.56879410298787, 77.56879410298787, 77.83111670732667, 78.421342567089, 79.81165237008473, 80.74289761548754, 80.74289761548754, 80.69043309461976, 80.5723879226673, 81.32000734503292, 81.32000734503292, 81.42493638676844, 81.17572991264657, 81.17572991264657, 81.17572991264657, 81.9889299860969, 82.17255580913407, 82.17255580913407, 82.17255580913407, 81.87088481414445, 81.03145248026023, 80.75601374570446, 80.97898795939246, 80.97898795939246, 80.99210408960941, 81.03145248026023, 81.97581385587996, 81.97581385587996, 82.15943967891714, 80.80847826657222, 80.5723879226673, 80.5723879226673, 81.45116864720234, 82.2119041997849, 81.39870412633456, 81.39870412633456, 80.86094278744, 81.71349125154114, 82.88082684084887, 82.88082684084887, 81.4380525169854, 80.36252983919624, 80.23136853702684, 80.23136853702684, 79.81165237008473, 78.81482647359724, 77.73930379580808, 77.73930379580808, 76.34899399281237, 75.85058104456861, 74.56520028330841, 74.56520028330841, 73.34540017313293, 72.32234201621154, 72.40103879751318, 72.40103879751318, 73.1748904803127, 74.26352928831878, 75.37840035675875, 75.37840035675875, 75.2997035754571, 74.99803258046745, 76.45392303454788, 76.45392303454788, 79.01156842685134, 79.54932976574591, 80.74289761548754, 82.35618163217124, 82.35618163217124, 83.53663335169591, 84.67773668056977, 84.67773668056977, 84.75643346187141, 85.70079483749115, 85.93688518139608, 85.93688518139608, 85.93688518139608, 86.395949738989, 86.51399491094148, 86.48776265050759, 86.48776265050759, 86.48776265050759, 86.59269169224312, 86.1992077857349, 86.1992077857349, 85.51716901445397, 86.10739487421631, 86.82878203614806, 86.38283360877207, 86.38283360877207, 86.04181422313161, 86.09427874399938, 86.05493035334855, 86.05493035334855, 84.99252380577634, 84.7170850712206, 84.79578185252224, 84.79578185252224, 85.37289158206762, 84.7826657223053, 84.03504629993967, 84.03504629993967, 84.28425277406154, 84.29736890427849, 84.33671729492931, 85.87130453031138, 85.87130453031138, 86.15985939508407, 85.01875606621022, 84.9794076755594, 84.9794076755594, 86.09427874399938, 86.12051100443325, 83.45793657039428, 83.45793657039428, 82.77589779911335, 83.99569790928885, 84.87447863382388, 84.87447863382388, 83.70714304451614, 82.854594580415, 82.82836231998111, 82.82836231998111]",84.52636363675455,3.376091899932362,None
reward-effort-pgACC-TUS,R88533/RE002,B_4,0,2024-07-24_15h36.15.857,2024-07-24 15:40:39,None,None,2,,,2.32672119140625,1,24,approach,shifted,reward,0.58,100,60,63,reject,1.369501099921763,None,0,698,"null",None,None,None
reward-effort-pgACC-TUS,R88533/RE002,B_4,0,2024-07-24_15h36.15.857,2024-07-24 15:40:39,None,None,2,,,2.32672119140625,1,25,approach,shifted,reward,None,95,80,82,accept,2.8612902000313625,success,82,780,"[-0.013116130216940794, -0.03934839065082238, -0.03934839065082238, -0.052464520867763174, -0.03934839065082238, -0.03934839065082238, 0.0, 0.026232260433881587, 0.013116130216940794, 0.013116130216940794, 0.013116130216940794, 0.026232260433881587, 0.0, -0.052464520867763174, -0.052464520867763174, -0.06558065108470397, 0.0, 0.11804517195246715, 0.11804517195246715, 0.2754387345557567, 0.563993599328454, 1.1804517195246715, 1.1804517195246715, 2.6232260433881587, 4.28897458093964, 6.203929592612996, 8.420555599275989, 8.420555599275989, 10.440439652684871, 11.673355893077307, 12.512788226961517, 12.512788226961517, 14.598252931455102, 17.549382230266783, 20.421814747776814, 20.421814747776814, 24.98622806327221, 29.144041342042442, 32.93460297473833, 32.93460297473833, 38.87620996301251, 42.33886834028488, 48.896933448755284, 48.896933448755284, 54.0122242333622, 57.80278586605808, 64.09852837018965, 64.09852837018965, 67.79727709136696, 70.26310957215183, 72.63712914141811, 72.63712914141811, 76.2309488208599, 79.98216206290496, 80.95275569895858, 81.13638152199574, 81.13638152199574, 84.45476246688177, 86.65827234332782, 88.11416279740826, 88.11416279740826, 88.88801448020776, 89.28149838671598, 89.75367907452585, 89.75367907452585, 90.86855014296582, 91.39319535164346, 93.25568584244904, 93.25568584244904, 93.33438262375068, 93.80656331156055, 94.48860208284148, 94.71157629652947, 94.71157629652947, 95.00013116130216, 95.02636342173605, 96.12811835995907, 96.12811835995907, 96.42978935494871, 96.49537000603343, 96.4560216153826, 96.4560216153826, 96.54783452690118, 96.9413184334094, 96.92820230319246, 96.92820230319246, 97.07247973557881, 97.0987119960127, 97.57089268382256, 97.57089268382256, 97.99060885076467, 98.41032501770678, 98.52837018965924, 98.52837018965924, 98.12177015293408, 97.88567980902914, 97.54466042338869, 98.08242176228326, 98.08242176228326, 100.3121638991632, 101.19094462369821, 100.81057684740695, 100.81057684740695, 100.06295742504132, 101.24340914456597, 101.7287059625928, 101.7287059625928, 101.68935757194197, 102.09595760866715, 103.3026415886257, 103.3026415886257, 103.32887384905958, 103.32887384905958, 102.50255764539232, 102.50255764539232, 101.75493822302668, 99.87933160200414, 99.89244773222109, 100.29904776894625, 100.29904776894625, 100.36462842003095, 99.19729283072323, 99.13171217963853, 99.13171217963853, 99.03989926811994, 99.42026704441122, 100.40397681068178, 100.40397681068178, 99.65635738831615, 98.65953149182866, 98.73822827313029, 98.73822827313029, 99.68258964875002, 100.20723485742766, 99.65635738831615, 99.8006348207025, 99.8006348207025, 100.67941554523753, 100.92862201935941, 101.11224784239658, 101.11224784239658, 101.6631253115081, 101.24340914456597, 101.17782849348129, 101.17782849348129, 102.791112510165, 104.40439652684871]",100.21110519093429,2.451177400071174,None
reward-effort-pgACC-TUS,R88533/RE002,B_4,0,2024-07-24_15h36.15.857,2024-07-24 15:40:39,None,None,2,,,2.32672119140625,1,26,approach,shifted,reward,None,75,20,19,reject,2.0784300999948755,None,0,780,"null",None,None,None
reward-effort-pgACC-TUS,R88533/RE002,B_4,0,2024-07-24_15h36.15.857,2024-07-24 15:40:39,None,None,2,,,2.32672119140625,1,27,approach,shifted,reward,None,100,100,77,reject,1.1056030999170616,None,0,780,"null",None,None,None
reward-effort-pgACC-TUS,R88533/RE002,B_4,0,2024-07-24_15h36.15.857,2024-07-24 15:40:39,None,None,2,,,2.32672119140625,1,28,approach,shifted,reward,None,75,80,72,accept,1.7024366999976337,success,72,852,"[-0.31478712520657903, -0.3016709949896383, -0.2754387345557567, -0.2754387345557567, -0.3016709949896383, -0.3016709949896383, -0.32790325542351983, -0.32790325542351983, -0.31478712520657903, -0.34101938564046064, -0.32790325542351983, -0.3016709949896383, -0.3016709949896383, -0.31478712520657903, -0.34101938564046064, -0.31478712520657903, -0.31478712520657903, -0.31478712520657903, -0.32790325542351983, -0.2754387345557567, -0.2754387345557567, -0.2754387345557567, -0.18362582303717112, -0.09181291151858556, -0.09181291151858556, 0.0, 0.1967419532541119, 0.4852968180268094, 0.8000839432333885, 0.8000839432333885, 1.2722646310432568, 2.3084389181815794, 3.3314970751029613, 3.3314970751029613, 4.4857165341937515, 5.561239211982897, 7.686052307127306, 7.686052307127306, 11.319220377219905, 13.325988300411845, 19.647963064977308, 19.647963064977308, 24.684557068282572, 28.08163479447024, 31.96400933868471, 31.96400933868471, 36.38414522179376, 40.607539151648695, 43.75541040371449, 43.75541040371449, 48.39852050051153, 50.96928202303192, 52.60879830014953, 53.421998373599855, 53.421998373599855, 54.13026940531466, 55.16644369245298, 55.33695338527321, 55.33695338527321, 55.494346947876494, 56.01899215655413, 57.44865035020068, 57.44865035020068, 59.678392487080615, 63.337792817607095, 64.7543348810367, 64.7543348810367, 66.43319954880512, 68.96461268067469, 69.90897405629443, 69.90897405629443, 70.81398704126335, 72.12560006295743, 73.67330342855644, 73.67330342855644, 72.2829936255607, 72.09936780252355, 73.84381312137667, 74.69636158547782, 74.69636158547782, 75.41774874740956, 76.37522625324624, 76.76871015975446, 76.76871015975446, 75.40463261719262, 72.02067102122189, 71.01072899451746, 71.01072899451746, 71.5747225938459, 73.71265181920727, 74.61766480417617, 74.89310353873194, 74.89310353873194, 75.33905196610792, 75.47021326827733, 75.47021326827733, 74.04055507463077, 71.16812255712075, 71.75834841688308, 75.99485847695496, 75.99485847695496, 78.57873612969229, 80.58550405288423, 82.13320741848325, 82.13320741848325, 82.86771071063194, 84.36294955536319, 86.05493035334855, 86.05493035334855, 86.60580782246005, 87.43212402612734, 87.39277563547651, 87.39277563547651, 87.30096272395792, 88.10104666719131, 88.20597570892684, 88.20597570892684, 87.98300149523884, 88.23220796936072, 88.5469950945673, 88.612575745652, 88.612575745652, 88.29778862044543, 88.38960153196402, 88.14039505784214, 88.14039505784214, 87.52393693764591, 87.06487238005299, 88.07481440675743, 88.62569187586894, 88.62569187586894, 88.42894992261483, 88.03546601610661, 87.7469111513339, 87.7469111513339, 87.73379502111696, 87.66821437003226, 87.70756276068309, 87.70756276068309, 88.58634348521812, 88.9667112615094, 89.0322919125941, 89.0322919125941, 88.9667112615094, 88.58634348521812, 88.11416279740826, 88.11416279740826, 87.99611762545578, 87.65509823981532, 87.20914981243934, 87.20914981243934, 87.18291755200546, 87.30096272395792, 86.59269169224312, 85.98934970226384, 85.98934970226384, 85.03187219642716, 84.08751082080744, 83.93011725820413, 83.93011725820413, 83.70714304451614, 83.43170430996038, 83.30054300779098, 83.30054300779098]",86.86643802289991,2.7398986000334844,None
reward-effort-pgACC-TUS,R88533/RE002,B_4,0,2024-07-24_15h36.15.857,2024-07-24 15:40:39,None,None,2,,,2.32672119140625,1,29,approach,shifted,reward,None,55,20,19,reject,1.6043323000194505,None,0,852,"null",None,None,None
reward-effort-pgACC-TUS,R88533/RE002,B_4,0,2024-07-24_15h36.15.857,2024-07-24 15:40:39,None,None,2,,,2.32672119140625,1,30,approach,shifted,reward,None,85,40,44,reject,1.3321721999673173,None,0,852,"null",None,None,None
reward-effort-pgACC-TUS,R88533/RE002,B_4,0,2024-07-24_15h36.15.857,2024-07-24 15:40:39,None,None,2,,,2.32672119140625,1,31,approach,shifted,reward,0.418,100,40,42,reject,1.1172504998976365,None,0,852,"null",None,None,None
reward-effort-pgACC-TUS,R88533/RE002,B_4,0,2024-07-24_15h36.15.857,2024-07-24 15:40:39,None,None,2,,,2.32672119140625,1,32,approach,shifted,reward,None,70,100,101,accept,1.7221802999265492,success,101,953,"[-0.38036777629128304, -0.3934839065082238, -0.4590645575929278, -0.4590645575929278, -0.43283229715904614, -0.44594842737598694, -0.44594842737598694, -0.4590645575929278, -0.4721806878098686, -0.4197161669421054, -0.4590645575929278, -0.4590645575929278, -0.4197161669421054, -0.4066000367251646, -0.4197161669421054, -0.4197161669421054, -0.4066000367251646, -0.4066000367251646, -0.34101938564046064, -0.34101938564046064, -0.14427743238634871, 0.052464520867763174, 0.32790325542351983, 0.32790325542351983, 0.44594842737598694, 0.7607355525825661, 1.6132840166837175, 1.6132840166837175, 3.003593819679442, 4.420135883109047, 6.217045722829936, 10.033839615959707, 10.033839615959707, 13.05054956585609, 17.090317672673855, 17.090317672673855, 22.389234280317936, 27.39959602318932, 31.268854437186853, 35.55782901812649, 35.55782901812649, 39.40085517169015, 40.686235932950346, 41.42073922509903, 41.42073922509903, 41.82733926182419, 41.48631987618373, 41.158416620760214, 41.158416620760214, 40.71246819338422, 39.6762939062459, 38.37779701476876, 37.7482227643556, 37.7482227643556, 38.08924214999607, 38.6794680097584, 39.558248734293436, 39.558248734293436, 40.66000367251646, 41.91915217334278, 45.06702342540857, 45.06702342540857, 48.28047532855906, 50.602030376957586, 52.97604994622387, 52.97604994622387, 55.4287662967918, 56.478056714147066, 57.06828257390939, 57.68474069410561, 57.68474069410561, 57.96017942866136, 58.576637548857576, 59.78332152881614, 59.78332152881614, 61.52776684766926, 63.206631515437685, 64.43954775583012, 64.43954775583012, 66.1052962933816, 69.08265785262716, 70.3549224836704, 70.3549224836704, 71.65341937514755, 72.33545814642848, 73.41098082421762, 73.80446473072585, 73.80446473072585, 74.39469059048818, 75.4964455287112, 75.15542614307074, 75.15542614307074, 72.88633561553999, 73.58149051703785, 74.32910993940348, 74.32910993940348, 73.29293565226516, 72.49285170903177, 72.04690328165579, 71.87639358883555, 71.87639358883555, 71.99443876078801, 74.60454867395924, 75.98174234673803, 75.98174234673803, 76.75559402953752, 79.16896198945463, 80.74289761548754, 80.74289761548754, 81.04456861047716, 80.74289761548754, 80.82159439678918, 80.82159439678918, 81.64791060045644, 82.90705910128275, 83.01198814301829, 83.01198814301829, 82.95952362215053, 83.11691718475382, 83.7596075653839, 83.7596075653839, 84.13997534167518, 83.66779465386533, 82.2119041997849, 83.16938170562157, 83.16938170562157, 83.60221400278061, 82.40864615303902, 82.00204611631385, 82.00204611631385, 81.89711707457832, 80.96587182917551, 80.74289761548754, 80.74289761548754, 81.24131056373128, 81.62167834002257, 81.55609768893785, 81.55609768893785, 81.47740090763621, 81.64791060045644, 81.39870412633456, 81.39870412633456, 80.66420083418589, 80.7035492248367, 81.17572991264657, 81.17572991264657, 80.9265234385247, 80.17890401615907, 80.2182524068099, 80.2182524068099, 80.59862018310118, 80.08709110464048, 79.6411426772645, 78.88040712468194, 78.88040712468194, 79.07714907793604, 79.44440072401039, 79.74607171900003, 79.74607171900003, 80.04774271398966, 80.07397497442355, 79.94281367225415, 79.94281367225415, 80.45434275071483, 80.58550405288423]",81.00014300812946,2.751442899927497,None
reward-effort-pgACC-TUS,R88533/RE002,B_4,0,2024-07-24_15h36.15.857,2024-07-24 15:40:39,None,None,2,,,2.32672119140625,1,33,approach,shifted,reward,None,100,80,72,reject,1.3467067999299616,None,0,953,"null",None,None,None
reward-effort-pgACC-TUS,R88533/RE002,B_4,0,2024-07-24_15h36.15.857,2024-07-24 15:40:39,None,None,2,,,2.32672119140625,1,34,approach,shifted,reward,None,90,20,22,reject,0.9784560999833047,None,0,953,"null",None,None,None
reward-effort-pgACC-TUS,R88533/RE002,B_4,0,2024-07-24_15h36.15.857,2024-07-24 15:40:39,None,None,2,,,2.32672119140625,1,35,approach,shifted,reward,None,65,40,37,accept,1.1734201000072062,success,37,990,"[-0.31478712520657903, -0.31478712520657903, -0.36725164607434224, -0.35413551585740144, -0.4197161669421054, -0.4197161669421054, -0.36725164607434224, -0.34101938564046064, -0.34101938564046064, -0.34101938564046064, -0.31478712520657903, -0.3016709949896383, -0.3016709949896383, -0.32790325542351983, -0.32790325542351983, -0.31478712520657903, -0.31478712520657903, -0.22297421368799347, -0.09181291151858556, 0.14427743238634871, 0.14427743238634871, 0.38036777629128304, 0.9312452454027963, 1.600167886466777, 1.600167886466777, 2.859316387293093, 4.000419716166942, 4.892316570918917, 4.892316570918917, 7.948374911466121, 10.794575168542274, 12.342278534141286, 12.342278534141286, 14.349046457333229, 16.093491776186355, 18.611788777838985, 18.611788777838985, 21.103853519057736, 22.83518270769392, 25.13050549565856, 25.13050549565856, 27.22908633036909, 30.21956401983159, 31.334435088271555, 31.334435088271555, 33.28873849059574, 37.0399517326408, 40.318984286875995, 40.318984286875995, 42.82416515831169, 46.92951391621416, 50.07738516827995, 50.07738516827995, 52.51698538863094, 53.43511450381679, 53.2777209412135, 53.2777209412135, 54.44505653052123, 56.72726318826893, 58.550405288423704, 61.081818420293274, 61.081818420293274, 62.73445082762782, 64.28215419322683, 64.28215419322683, 66.72175441357781, 67.28574801290628, 66.14464468403243, 67.07588992943522, 67.07588992943522, 68.91214815980693, 69.35809658718291, 69.35809658718291, 69.43679336848456, 68.97772881089163, 68.63670942525117, 68.76787072742057, 68.76787072742057, 69.56795467065398, 70.36803861388736, 70.5385483067076, 70.5385483067076, 70.51231604627371, 70.5385483067076, 71.20747094777157, 71.20747094777157, 71.98132263057107, 72.24364523490989, 74.76194223656253, 74.76194223656253, 77.01791663387634, 78.53938773904147, 78.97222003620053, 78.97222003620053, 79.16896198945463, 79.30012329162403, 79.37882007292568, 79.37882007292568, 80.23136853702684, 80.41499436006401, 79.89034915138637, 79.89034915138637, 79.53621363552898, 80.25760079746071, 80.49369114136566, 80.49369114136566, 79.22142651032239, 78.14590383253325, 76.89987146192388, 76.89987146192388, 75.69318748196532, 74.35534219983737, 74.3028776789696, 74.3028776789696, 74.28976154875265, 73.71265181920727, 73.1486582198788, 73.1486582198788, 72.83387109467223, 72.21741297447602, 71.92885810970331, 71.65341937514755, 71.65341937514755, 71.54849033341203, 72.02067102122189, 72.4666194485979, 72.4666194485979, 74.211064767451, 75.82434878413473, 75.85058104456861, 75.85058104456861, 76.09978751869049, 77.63437475407255, 77.63437475407255, 78.36887804622124, 78.78859421316335, 80.07397497442355, 80.87405891765694, 80.87405891765694, 80.93963956874164, 80.59862018310118, 80.38876209963013, 80.38876209963013, 80.42811049028094, 80.50680727158259]",76.66141591420933,2.4113036999478936,None
reward-effort-pgACC-TUS,R88533/RE002,B_4,0,2024-07-24_15h36.15.857,2024-07-24 15:40:39,None,None,2,,,2.32672119140625,1,36,approach,shifted,reward,None,95,40,37,reject,1.1407204000279307,None,0,990,"null",None,None,None
reward-effort-pgACC-TUS,R88533/RE002,B_4,0,2024-07-24_15h36.15.857,2024-07-24 15:40:39,None,None,2,,,2.32672119140625,1,37,approach,shifted,reward,0.69,60,80,66,accept,1.264497600030154,success,66,1056,"[-0.2623226043388159, -0.28855486477269743, -0.28855486477269743, -0.28855486477269743, -0.24920647412187508, -0.2360903439049343, -0.2360903439049343, -0.22297421368799347, -0.11804517195246715, 0.10492904173552635, 0.10492904173552635, 0.14427743238634871, 0.15739356260328952, 0.24920647412187508, 0.6820387712809213, 0.6820387712809213, 1.2722646310432568, 1.849374360588652, 2.7806196059914483, 2.7806196059914483, 3.13475512184885, 3.9086068046483566, 4.525064924844574, 4.525064924844574, 5.180871435691613, 6.085884420660529, 8.407439469059048, 8.407439469059048, 12.132420450670233, 15.896749822932241, 21.47110516513208, 21.47110516513208, 26.245376564098528, 30.376957582434876, 34.49542247055429, 34.49542247055429, 37.60394533196926, 40.05666168253719, 40.93544240707222, 40.93544240707222, 41.55190052726844, 42.797932897877814, 45.18506859736103, 45.18506859736103, 46.75900422339393, 48.04438498465412, 48.52968180268093, 47.2311849112038, 47.2311849112038, 45.880223498858896, 46.5884945305737, 46.5884945305737, 48.17554628682353, 49.054327011358566, 49.55273995960232, 49.88064321502584, 49.88064321502584, 50.61514650717452, 51.913643398651665, 53.33018546208127, 53.33018546208127, 54.16961779596547, 55.848482463733895, 57.09451483434328, 57.09451483434328, 58.07822460061384, 58.852076283413346, 59.37672149209098, 59.37672149209098, 58.996353715799685, 58.497940767555946, 57.97329555887831, 57.97329555887831, 56.98958579260774, 55.9140631148186, 54.52375331182287, 53.76301775924032, 53.76301775924032, 54.576217832690645, 55.441882427008736, 55.441882427008736, 55.33695338527321, 54.51063718160594, 53.97287584271137, 53.81548228010807, 53.81548228010807, 53.566275805986194, 53.605624196637024, 54.05157262401301, 54.05157262401301, 54.75984365572781, 56.058340547204956, 56.399359932845414, 56.399359932845414, 56.399359932845414, 56.464940583930115, 57.107630964560215, 58.43236011647124, 58.43236011647124, 59.66527635686367, 59.15374727840298, 58.66845046037618, 58.66845046037618, 58.681566590593114, 59.96694735185331, 60.412895779229295, 60.412895779229295, 59.98006348207024, 59.27179245035544, 59.82266991946696, 60.87196033682223, 60.87196033682223, 61.10805068072715, 61.4097216757168, 62.19668948873325, 62.19668948873325, 63.54765090107814, 64.61005744865035, 64.97730909472469, 64.97730909472469, 64.41331549539623, 64.58382518821647, 65.16093491776186, 65.16093491776186, 64.99042522494163, 64.28215419322683, 63.96736706802025, 63.96736706802025, 64.16410902127436, 65.06912200624328, 65.12158652711105, 65.12158652711105, 64.63628970908422, 64.64940583930118, 65.9085543401275, 65.9085543401275, 66.21022533511713, 67.45625770572651, 68.24322551874295, 68.24322551874295, 68.71540620655281, 69.33186432674904, 70.07948374911466, 70.44673539518901, 70.44673539518901, 69.8302772749928, 67.94155452375331, 66.60370924162535, 66.60370924162535, 66.89226410639804, 67.14147058051992, 67.57430287767897, 67.57430287767897, 67.77104483093308, 67.04965766900133, 67.45625770572651, 67.45625770572651, 69.7384643634742, 70.05325148868079, 69.18758689436268, 69.18758689436268, 69.05642559219328, 69.39744497783374, 69.5154901497862, 69.5154901497862, 69.62041919152173, 70.19752892106713, 70.52543217649064, 70.52543217649064, 70.9320322132158, 70.94514834343275, 71.08942577581911, 71.08942577581911, 71.14189029668687, 70.669709608877, 71.10254190603604, 71.10254190603604, 71.99443876078801, 73.41098082421762, 73.6601872983395, 73.6601872983395, 72.17806458382519, 71.92885810970331, 73.1748904803127, 73.1748904803127, 73.75200020985808, 72.87321948532305, 72.84698722488918, 72.91256787597388, 72.91256787597388, 72.78140657380446, 71.36486451037486, 70.63036121822618, 70.63036121822618, 70.49919991605677, 70.32869022323653, 70.07948374911466, 70.07948374911466]",70.20204431015821,3.2904550000093877,None
reward-effort-pgACC-TUS,R88533/RE002,B_4,0,2024-07-24_15h36.15.857,2024-07-24 15:40:39,None,None,2,,,2.32672119140625,1,38,approach,shifted,reward,None,85,100,84,accept,2.1662192998919636,success,84,1140,"[0.013116130216940794, -0.013116130216940794, 0.0, 0.0, 0.0, 0.013116130216940794, 0.013116130216940794, 0.06558065108470397, 0.06558065108470397, 0.06558065108470397, 0.09181291151858556, 0.11804517195246715, 0.11804517195246715, 0.2098580834710527, 0.2098580834710527, 0.2754387345557567, 0.2754387345557567, 0.4852968180268094, 0.7607355525825661, 1.1542194590907897, 1.1542194590907897, 2.5182970016526323, 3.869258413997534, 5.7710972954539494, 8.840271766218095, 8.840271766218095, 11.961910757850005, 16.932924110070566, 16.932924110070566, 23.399176307022376, 28.684976784449518, 36.00377744550248, 40.93544240707222, 40.93544240707222, 46.522913879488996, 50.45775294457123, 54.26143070748406, 54.26143070748406, 58.11757299126465, 62.918076650664986, 65.64623173578867, 65.64623173578867, 68.55801264394952, 69.76469662390808, 70.31557409301959, 70.63036121822618, 70.63036121822618, 71.65341937514755, 75.44398100784345, 78.1590199627502, 78.1590199627502, 80.19202014637601, 83.23496235670628, 86.21232391595184, 86.21232391595184, 87.96988536502191, 89.07164030324492, 90.08158232994937, 90.08158232994937, 93.19010519136434, 96.07565383909132, 96.60029904776894, 94.14758269720102, 94.14758269720102, 91.57682117468062, 90.46195010624065, 90.46195010624065, 89.79302746517668, 89.51758873062093, 89.57005325148867, 89.09787256367882, 89.09787256367882, 88.612575745652, 88.83554995934, 89.38642742845151, 89.38642742845151, 90.1865113716849, 90.8947824033997, 91.70798247685002, 91.70798247685002, 93.89837622307914, 95.14440859368852, 95.90514414627108, 97.79386689751057, 97.79386689751057, 98.97431861703522, 99.64324125809921, 101.70247370215893, 101.70247370215893, 103.4075706303612, 103.3026415886257, 102.89604155190052, 102.89604155190052, 104.77164817292307, 105.49303533485481, 104.58802234988589, 104.58802234988589, 102.93538994255135, 100.22035098764461, 99.70882190918391, 99.70882190918391, 99.52519608614674, 98.92185409616746, 97.92502819967996, 97.50531203273786, 97.50531203273786, 96.37732483408095, 94.1738149576349, 93.95084074394691, 93.95084074394691, 96.24616353191155, 97.04624747514494, 96.25927966212848, 96.25927966212848, 94.9476666404344, 94.50171821305841, 95.95760866713886]",95.76753228825727,1.9544353999663144,None
reward-effort-pgACC-TUS,R88533/RE002,B_4,0,2024-07-24_15h36.15.857,2024-07-24 15:40:39,None,None,2,,,2.32672119140625,1,39,approach,shifted,reward,None,85,60,55,reject,7.596843299921602,None,0,1140,"null",None,None,None
reward-effort-pgACC-TUS,R88533/RE002,B_4,0,2024-07-24_15h36.15.857,2024-07-24 15:40:39,None,None,2,,,2.32672119140625,1,40,approach,shifted,reward,None,75,60,56,accept,1.2613539000740275,success,56,1196,"[-0.11804517195246715, -0.11804517195246715, -0.09181291151858556, -0.09181291151858556, -0.07869678130164476, -0.17050969282023032, -0.13116130216940794, -0.13116130216940794, -0.14427743238634871, -0.13116130216940794, -0.11804517195246715, -0.11804517195246715, -0.11804517195246715, -0.026232260433881587, 0.03934839065082238, 0.18362582303717112, 0.18362582303717112, 0.2754387345557567, 0.7082710317148029, 1.849374360588652, 1.849374360588652, 3.423309986621547, 5.023477873088324, 7.397497442354608, 7.397497442354608, 10.860155819626979, 13.063665696073032, 16.172188557488, 16.172188557488, 21.759660029904776, 25.61580231368537, 29.826080113323368, 29.826080113323368, 35.03318380944886, 39.80745520841531, 43.00779098134886, 43.00779098134886, 49.119907662443275, 51.9267595288686, 55.087746911151335, 56.976469662390805, 56.976469662390805, 58.497940767555946, 60.30796673749377, 61.90813462396054, 61.90813462396054, 62.55082500459065, 63.94113480758637, 64.67563809973505, 64.67563809973505, 64.15099289105743, 62.078644316780775, 61.5408829778862, 61.5408829778862, 61.77697332179114, 62.45901209307206, 63.61323155216285, 63.61323155216285, 64.19034128170824, 65.13470265732798, 66.19710920490019, 67.02342540856746, 67.02342540856746, 67.14147058051992, 67.46937383594344, 68.85968363893916, 68.85968363893916, 70.30245796280266, 70.87956769234805, 71.27305159885627, 71.27305159885627, 71.54849033341203, 72.53220009968258, 74.05367120484773, 74.05367120484773, 76.12601977912436, 78.48692321817371, 80.07397497442355, 80.07397497442355, 80.2838330578946, 80.31006531832848, 80.24448466724378, 80.24448466724378, 80.53303953201647, 82.60538810629312, 83.96946564885496, 83.96946564885496, 83.28742687757405, 82.76278166889641, 82.73654940846252, 82.73654940846252, 82.80213005954722, 83.22184622648933, 84.11374308124131, 84.11374308124131, 85.29419480076598, 86.80254977571418, 87.44524015634427, 87.44524015634427, 87.49770467721204, 88.74373704782141, 89.30773064714987, 89.30773064714987, 89.04540804281105, 88.35025314131319, 87.99611762545578, 87.99611762545578, 88.02234988588967, 88.71750478738753, 88.97982739172635, 88.9667112615094, 88.9667112615094, 87.72067889090003, 86.42218199942289, 85.74014322814197, 85.74014322814197, 84.80889798273917, 83.61533013299756, 83.86453660711943, 83.86453660711943, 84.04816243015661, 83.78583982581779, 83.90388499777026, 83.90388499777026, 84.04816243015661, 84.10062695102437, 85.6876787072742, 85.6876787072742, 87.53705306786286, 88.48141444348259, 88.78308543847223, 88.78308543847223, 88.86178221977387, 89.71433068387503, 90.50129849689148, 90.50129849689148, 89.28149838671598, 88.94047900107552]",85.66058637272775,2.2898324000416324,None
reward-effort-pgACC-TUS,R88533/RE002,B_4,0,2024-07-24_15h36.15.857,2024-07-24 15:40:39,None,None,2,,,2.32672119140625,1,41,approach,shifted,reward,None,85,100,93,accept,2.252789300051518,success,93,1289,"[0.03934839065082238, 0.10492904173552635, 0.10492904173552635, 0.09181291151858556, 0.09181291151858556, 0.06558065108470397, 0.06558065108470397, 0.07869678130164476, 0.052464520867763174, 0.06558065108470397, 0.06558065108470397, 0.07869678130164476, 0.28855486477269743, 0.7082710317148029, 0.7082710317148029, 1.5739356260328952, 2.846200257076152, 3.6069358096587187, 3.6069358096587187, 4.695574617664804, 5.521890821332074, 6.125232811311351, 6.125232811311351, 7.699168437344246, 10.506020303769576, 13.129246347157736, 16.946040240287505, 16.946040240287505, 21.77277616012172, 26.82248629364392, 31.216389916319088, 31.216389916319088, 37.70887437370478, 40.79116497468587, 44.16201044043965, 44.16201044043965, 48.04438498465412, 50.41840455392042, 53.094095118176334, 53.094095118176334, 56.63545027675034, 58.32743107473571, 59.035702106450515, 60.49159256053094, 60.49159256053094, 63.06235408305134, 64.76745101125364, 67.33821253377403, 67.33821253377403, 69.17447076414575, 70.84021930169723, 72.07313554208966, 72.07313554208966, 74.5914325437423, 76.38834238346318, 77.84423283754361, 77.84423283754361, 78.05409092101466, 77.16219406626269, 73.29293565226516, 73.29293565226516, 70.91891608299888, 70.31557409301959, 70.39427087432124, 70.39427087432124, 70.3549224836704, 70.78775478082946, 71.79769680753391, 73.52902599617009, 73.52902599617009, 75.83746491435167, 79.01156842685134, 82.99887201280134, 82.99887201280134, 86.73696912462947, 89.17656934498046, 90.94724692426746, 90.94724692426746, 92.1145825135752, 93.91149235329608, 97.5840088140395, 97.5840088140395, 99.0923637889877, 99.42026704441122, 97.59712494425644, 97.59712494425644, 96.82327326145695, 96.79704100102306, 97.02001521471105, 97.02001521471105, 97.75451850685974, 98.20046693423572, 96.0100731880066, 96.0100731880066, 94.92143438000052, 95.89202801605414, 96.63964743841977, 96.79704100102306, 96.79704100102306, 96.7445764801553, 97.37415073056846, 97.47907977230398, 97.47907977230398, 97.20364103774823, 97.28233781904987, 97.43973138165316, 97.43973138165316, 98.02995724141549, 99.47273156527898, 99.36780252354346, 99.36780252354346, 98.6464153616117, 97.84633141837831, 97.29545394926681, 97.29545394926681, 95.34115054694263, 94.02953752524856, 93.70163426982504, 93.70163426982504, 93.34749875396763, 93.04582775897799, 92.74415676398834, 92.6654599826867, 92.6654599826867, 92.84908580572387, 91.76044699771779, 90.84231788253194, 90.84231788253194, 90.55376301775924, 90.60622753862701, 90.82920175231499, 90.82920175231499, 90.90789853361663, 90.90789853361663, 91.55058891424675, 91.87849216967025]",95.14784889013887,2.2642822000198066,None
reward-effort-pgACC-TUS,R88533/RE002,B_4,0,2024-07-24_15h36.15.857,2024-07-24 15:40:39,None,None,2,,,2.32672119140625,1,42,approach,shifted,reward,None,50,80,88,accept,1.2830782999517396,success,88,1377,"[-0.15739356260328952, -0.18362582303717112, -0.1967419532541119, -0.2098580834710527, -0.2098580834710527, -0.18362582303717112, -0.14427743238634871, -0.18362582303717112, -0.18362582303717112, -0.17050969282023032, -0.13116130216940794, -0.15739356260328952, -0.11804517195246715, -0.11804517195246715, -0.13116130216940794, -0.03934839065082238, 0.22297421368799347, 0.22297421368799347, 0.9312452454027963, 1.849374360588652, 3.3970777261876655, 5.259568216993258, 5.259568216993258, 7.882794260381417, 10.873271949843918, 12.591485008263161, 12.591485008263161, 14.637601322105926, 18.244537131764645, 21.45798903491514, 21.45798903491514, 24.605860286980928, 27.911125101650008, 33.51171270428373, 39.938616510584716, 39.938616510584716, 45.14572020671021, 50.61514650717452, 53.264604810996566, 53.264604810996566, 56.87154062065528, 59.31114084100627, 63.45583798955956, 63.45583798955956, 65.72492851709032, 66.1052962933816, 67.71858031006532, 67.71858031006532, 69.77781275412502, 70.31557409301959, 70.30245796280266, 70.30245796280266, 70.1581805304163, 70.63036121822618, 71.70588389601532, 71.7321161564492, 71.7321161564492, 70.80087091104642, 70.44673539518901, 70.44673539518901, 70.44673539518901, 70.82710317148029, 70.87956769234805, 70.82710317148029, 71.45667742189345, 71.45667742189345, 72.32234201621154, 72.42727105794707, 71.43044516145956, 71.43044516145956, 72.03378715143884, 73.69953568899032, 74.05367120484773, 74.05367120484773, 73.41098082421762, 73.5027937357362, 73.96185829332914, 73.96185829332914, 72.26987749534376, 71.06319351538522, 70.52543217649064, 70.52543217649064, 70.17129666063325, 69.8302772749928, 69.72534823325725, 69.75158049369115, 69.75158049369115, 69.80404501455891, 69.77781275412502, 69.81716114477584, 69.81716114477584, 69.85650953542667, 69.8302772749928, 69.60730306130479, 69.46302562891844, 69.46302562891844, 68.99084494110858, 67.92843839353637, 67.92843839353637, 66.73487054379476, 65.76427690774113, 64.91172844363999]",69.95627813248666,1.7038665999425575,None
reward-effort-pgACC-TUS,R88533/RE002,B_4,0,2024-07-24_15h36.15.857,2024-07-24 15:40:39,None,None,2,,,2.32672119140625,1,43,approach,shifted,reward,None,75,80,79,accept,1.223124700016342,success,79,1456,"[-0.17050969282023032, -0.15739356260328952, -0.18362582303717112, -0.18362582303717112, -0.17050969282023032, -0.15739356260328952, -0.15739356260328952, -0.15739356260328952, -0.14427743238634871, -0.11804517195246715, -0.11804517195246715, -0.14427743238634871, -0.17050969282023032, -0.14427743238634871, -0.14427743238634871, -0.15739356260328952, -0.17050969282023032, -0.14427743238634871, -0.14427743238634871, -0.03934839065082238, 0.11804517195246715, 0.5377613388945726, 0.5377613388945726, 1.4952388447312506, 2.505180871435692, 3.777445502478949, 3.777445502478949, 5.338264998294903, 8.43367172949293, 11.542194590907899, 13.37845282127961, 13.37845282127961, 19.241363028252145, 23.897589255266126, 30.18021562918077, 30.18021562918077, 35.59717740877731, 41.32892631358044, 47.218068780986854, 47.218068780986854, 50.12984968914771, 52.72684347210199, 54.602450093124524, 54.602450093124524, 56.37312767241153, 57.724089084756436, 58.104456861047716, 58.104456861047716, 58.130689121481595, 58.65533433015923, 59.92759896120249, 59.92759896120249, 62.170457228299355, 63.37714120825792, 65.31832848036515, 65.31832848036515, 67.25951575247238, 68.71540620655281, 69.77781275412502, 70.24999344193489, 70.24999344193489, 71.08942577581911, 72.03378715143884, 71.86327745861861, 71.86327745861861, 71.53537420319509, 70.99761286430052, 70.98449673408358, 71.69276776579838, 71.69276776579838, 74.39469059048818, 76.0735552582566, 76.95233598279164, 76.95233598279164, 78.76236195272946, 80.49369114136566, 82.53980745520842, 82.53980745520842, 83.87765273733638, 85.60898192597256, 87.09110464048688, 87.09110464048688, 88.21909183914379, 88.11416279740826, 86.841898166365, 86.841898166365, 87.07798851026993, 87.82560793263555, 87.94365310458802, 87.94365310458802, 87.4190078959104, 86.02869809291467, 83.3661236588757, 83.3661236588757, 82.53980745520842, 82.39553002282206, 81.30689121481598, 81.30689121481598, 80.67731696440282, 80.74289761548754, 80.93963956874164, 80.93963956874164, 80.76912987592141, 80.7035492248367, 80.63796857375199, 80.63796857375199, 81.39870412633456, 84.36294955536319, 85.85818840009443, 85.85818840009443, 86.21232391595184, 86.12051100443325, 87.06487238005299, 87.06487238005299, 87.48458854699508, 87.40589176569345, 87.28784659374098, 87.28784659374098, 88.3240208808793, 89.28149838671598, 89.72744681409198, 89.62251777235645, 89.62251777235645, 89.13722095432963, 88.88801448020776, 89.0322919125941, 89.0322919125941, 89.11098869389575, 89.00605965216023, 88.02234988588967, 88.02234988588967, 86.50087878072453, 85.91065292096219, 85.6220980561895, 85.6220980561895, 85.34665932163375, 84.82201411295611]",85.61109743084624,2.271840100060217,None
reward-effort-pgACC-TUS,R88533/RE002,B_4,0,2024-07-24_15h36.15.857,2024-07-24 15:40:39,None,None,2,,,2.32672119140625,1,44,approach,shifted,reward,None,90,100,88,reject,2.244710099999793,None,0,1456,"null",None,None,None
reward-effort-pgACC-TUS,R88533/RE002,B_4,0,2024-07-24_15h36.15.857,2024-07-24 15:40:39,None,None,2,,,2.32672119140625,1,45,approach,shifted,reward,None,90,100,98,accept,2.174271200085059,success,98,1554,"[-0.09181291151858556, -0.10492904173552635, -0.10492904173552635, -0.11804517195246715, -0.11804517195246715, -0.10492904173552635, -0.10492904173552635, -0.2098580834710527, -0.2098580834710527, -0.22297421368799347, -0.22297421368799347, -0.24920647412187508, -0.18362582303717112, -0.1967419532541119, -0.1967419532541119, -0.17050969282023032, -0.2098580834710527, -0.15739356260328952, -0.13116130216940794, -0.13116130216940794, -0.15739356260328952, -0.14427743238634871, -0.10492904173552635, -0.10492904173552635, -0.026232260433881587, 0.026232260433881587, 0.07869678130164476, 0.07869678130164476, 0.2360903439049343, 0.4197161669421054, 0.5902258597623358, 0.5902258597623358, 0.9181291151858556, 1.3116130216940793, 1.98053566275806, 3.3839615959707245, 3.3839615959707245, 4.328322971590462, 4.839852050051153, 5.7710972954539494, 5.7710972954539494, 7.699168437344246, 10.007607355525826, 11.856981716114477, 11.856981716114477, 13.640775425618425, 17.746124183520894, 21.33994386296267, 24.343537682642115, 24.343537682642115, 28.291492877941295, 31.085228614149678, 33.170693318643266, 33.170693318643266, 35.6234096692112, 38.37779701476876, 40.227171375357415, 40.227171375357415, 41.2502295322788, 44.503029826080116, 47.59843655727814, 48.67395923506729, 49.13302379266021, 51.65132079431285, 54.16961779596547, 56.98958579260774, 59.75708926838226, 64.53136066734871, 67.5874190078959, 69.6728837123895, 69.6728837123895, 70.36803861388736, 71.27305159885627, 75.37840035675875, 78.02785866058079, 78.02785866058079, 78.84105873403111, 78.88040712468194, 80.16578788594214, 80.16578788594214, 83.39235591930957, 85.47782062380315, 84.19243986254295, 85.09745284751187, 85.09745284751187, 87.43212402612734, 88.94047900107552, 89.87172424647832, 89.87172424647832, 90.81608562209806, 91.94407282075497, 93.80656331156055, 95.85267962540333, 95.85267962540333, 97.20364103774823, 98.42344114792371, 99.07924765877075, 99.07924765877075, 99.39403478397733, 100.91550588914247, 101.6631253115081, 101.6631253115081, 101.91233178562997, 101.54508013955564, 101.67624144172503, 101.67624144172503, 101.68935757194197, 101.83363500432831, 101.36145431651846, 101.36145431651846, 99.3809186537604, 99.18417670050628, 99.19729283072323, 99.10547991920464, 99.10547991920464, 98.43655727814065, 98.3840927572729, 98.92185409616746, 98.92185409616746, 98.27916371553736, 97.6102410744734, 98.84315731486582, 98.84315731486582, 101.20406075391517, 102.3058156921382, 102.35828021300594, 102.35828021300594, 103.31575771884263, 104.50932556858426, 104.4962094383673, 104.4962094383673, 101.57131239998951, 99.89244773222109, 101.33522205608456, 101.57131239998951, 101.57131239998951, 101.020434930878, 101.05978332152881, 100.65318328480366, 100.65318328480366, 98.89562183573358, 97.79386689751057, 97.6102410744734, 97.6102410744734, 97.36103460035152, 96.56095065711813, 96.42978935494871, 96.70522808950447, 96.70522808950447, 96.37732483408095, 94.69846016631253, 91.41942761207733, 91.41942761207733, 90.35702106450513, 90.34390493428819, 89.5438209910548, 89.5438209910548, 88.33713701109625, 87.93053697437108, 88.53387896435035, 88.59945961543507, 88.59945961543507, 87.44524015634427, 86.61892395267701, 86.73696912462947, 87.78625954198473, 87.78625954198473, 88.97982739172635, 91.70798247685002, 94.86896985913276, 94.86896985913276, 95.61658928149839, 95.95760866713886, 97.34791847013457, 97.34791847013457, 99.13171217963853, 101.29587366543376, 101.7287059625928, 101.7287059625928, 103.13213189580546, 103.44691902101204, 102.73864798929723, 102.72553185908029, 102.72553185908029, 104.4962094383673, 104.9159256053094, 104.83722882400777, 104.83722882400777, 106.14884184570184, 107.05385483067076, 106.56855801264396, 106.56855801264396, 105.33564177225152, 105.76847406941057, 106.98827417958606, 106.98827417958606, 106.89646126806747, 105.2044804700821, 105.24382886073293, 105.24382886073293, 105.33564177225152, 104.66671913118752, 103.70924162535087, 104.95527399596023, 104.95527399596023, 105.44057081398704, 104.98150625639411, 104.48309330815036, 104.48309330815036, 105.7815901996275, 106.26688701765433, 105.33564177225152, 105.03397077726189, 105.03397077726189, 105.44057081398704, 105.36187403268539, 104.1683061829438, 104.1683061829438, 105.09955142834657, 105.74224180897669, 105.23071273051599, 105.23071273051599, 103.94533196925579, 104.8109965635739, 105.29629338160069, 104.66671913118752, 104.66671913118752, 103.56496419296451, 103.17148028645629, 103.06655124472076]",103.80083951834125,3.9200833999784663,None
reward-effort-pgACC-TUS,R88533/RE002,B_4,0,2024-07-24_15h36.15.857,2024-07-24 15:40:39,None,None,2,,,2.32672119140625,1,46,approach,shifted,reward,0.922,75,40,44,reject,2.113981599919498,None,0,1554,"null",None,None,None
reward-effort-pgACC-TUS,R88533/RE002,B_4,0,2024-07-24_15h36.15.857,2024-07-24 15:40:39,None,None,2,,,2.32672119140625,1,47,approach,shifted,reward,None,60,100,98,accept,3.6911613000556827,success,98,1652,"[-0.28855486477269743, -0.2623226043388159, -0.3016709949896383, -0.31478712520657903, -0.31478712520657903, -0.31478712520657903, -0.32790325542351983, -0.32790325542351983, -0.32790325542351983, -0.2623226043388159, -0.2360903439049343, -0.24920647412187508, -0.24920647412187508, -0.2623226043388159, -0.2754387345557567, -0.28855486477269743, -0.28855486477269743, -0.2623226043388159, -0.2623226043388159, -0.052464520867763174, -0.052464520867763174, 0.14427743238634871, 0.2623226043388159, 0.34101938564046064, 0.563993599328454, 0.563993599328454, 0.9443613756197372, 2.164161485795231, 2.990477689462501, 2.990477689462501, 3.8954906744314157, 5.102174654389969, 6.689226410639805, 6.689226410639805, 10.492904173552635, 12.171768841321057, 13.929330290391123, 17.418220928097377, 17.418220928097377, 20.041446971485534, 22.82206657747698, 26.310957215183233, 26.310957215183233, 29.10469295139162, 32.331260984759055, 36.633351695915636, 36.633351695915636, 40.05666168253719, 43.663597492195905, 48.14931402638965, 48.14931402638965, 51.48081110149262, 55.087746911151335, 56.98958579260774, 56.98958579260774, 58.32743107473571, 59.20621179927075, 60.67521838356811, 60.67521838356811, 61.93436688439443, 63.954250937803316, 66.19710920490019, 68.91214815980693, 68.91214815980693, 70.19752892106713, 71.05007738516828, 71.33863224994099, 71.33863224994099, 71.58783872406286, 72.16494845360825, 72.97814852705858, 72.97814852705858, 73.63395503790562, 74.68324545526089, 76.02109073738885, 76.02109073738885, 75.57514231001285, 73.96185829332914, 72.2829936255607, 72.2829936255607, 72.03378715143884, 72.1518323233913, 72.13871619317437, 72.13871619317437, 72.11248393274047, 72.51908396946564, 72.78140657380446, 72.74205818315365, 72.74205818315365, 72.75517431337059, 74.15860024658325, 76.06043912803966, 76.06043912803966, 76.30964560216154, 76.08667138847355, 76.34899399281237, 76.34899399281237, 77.2277747173474, 77.34581988929986, 76.95233598279164, 76.95233598279164, 77.59502636342174, 78.2901812649196, 77.54256184255397, 77.54256184255397, 76.17848429999214, 76.20471656042601, 76.27029721151072, 76.27029721151072, 75.70630361218225, 75.08984549198604, 74.31599380918654, 74.31599380918654, 73.54214212638703, 72.58466462055036, 72.25676136512683, 72.25676136512683, 71.79769680753391, 71.39109677080874, 71.39109677080874, 71.39109677080874, 71.43044516145956, 71.41732903124263]",73.84703839929888,2.0539666999829933,None
reward-effort-pgACC-TUS,R88533/RE002,B_4,0,2024-07-24_15h36.15.857,2024-07-24 15:40:39,None,None,2,,,2.32672119140625,1,48,approach,shifted,reward,None,75,60,53,accept,2.1478808999527246,success,53,1705,"[-0.2360903439049343, -0.2360903439049343, -0.2360903439049343, -0.2623226043388159, -0.22297421368799347, -0.2098580834710527, -0.24920647412187508, -0.28855486477269743, -0.28855486477269743, -0.2623226043388159, -0.22297421368799347, -0.2360903439049343, -0.2360903439049343, -0.2360903439049343, -0.18362582303717112, -0.2098580834710527, -0.2098580834710527, -0.013116130216940794, 0.32790325542351983, 0.7738516827995068, 2.2428582670968757, 2.2428582670968757, 4.328322971590462, 5.7710972954539494, 8.94520080795362, 8.94520080795362, 11.752052674378952, 14.270349676031582, 14.270349676031582, 17.641195141785367, 23.163085963117442, 26.914299205162507, 26.914299205162507, 31.281970567403793, 34.70528055402534, 40.069777812754126, 40.069777812754126, 42.535610293538994, 46.968862306864985, 49.48715930851761, 49.48715930851761, 51.19225623671991, 54.44505653052123, 56.215734109808245, 56.215734109808245, 57.173211615644924, 58.642218199942285, 62.45901209307206, 62.45901209307206, 64.22968967235907, 66.97096088769969, 69.34498045696597, 69.34498045696597, 70.89268382256499, 72.29610975577766, 74.19794863723406, 74.19794863723406, 76.58508433671729, 78.14590383253325, 80.42811049028094, 83.99569790928885, 83.99569790928885, 84.88759476404081, 83.81207208625167, 85.70079483749115, 85.70079483749115, 87.45835628656121, 88.23220796936072, 88.35025314131319, 88.35025314131319, 88.80931769890611, 88.88801448020776, 88.91424674064164, 88.91424674064164, 88.92736287085859, 88.5469950945673, 88.28467249022849, 87.64198210959839, 87.64198210959839, 87.64198210959839, 87.65509823981532, 87.65509823981532, 87.44524015634427, 87.36654337504262, 87.56328532829673, 87.28784659374098, 87.28784659374098, 86.27790456703654, 86.46153039007372, 86.46153039007372, 87.43212402612734, 87.73379502111696, 87.64198210959839, 87.64198210959839, 88.20597570892684, 88.86178221977387, 89.12410482411269, 89.42577581910233, 89.42577581910233, 90.04223393929855, 89.80614359539362, 89.15033708454658, 89.15033708454658, 88.62569187586894, 88.07481440675743, 87.53705306786286, 87.53705306786286, 87.31407885417485, 86.12051100443325, 84.52034311796648, 84.52034311796648, 83.53663335169591, 82.82836231998111, 82.51357519477453, 82.51357519477453, 82.13320741848325, 82.23813646021878, 82.19878806956795, 82.19878806956795, 80.76912987592141, 79.7067233283492]",86.53409220724159,2.0620334999402985,None
reward-effort-pgACC-TUS,R88533/RE002,B_4,0,2024-07-24_15h36.15.857,2024-07-24 15:40:39,None,None,2,,,2.32672119140625,1,49,approach,shifted,reward,None,80,80,75,reject,1.6321568000130355,None,0,1705,"null",None,None,None
reward-effort-pgACC-TUS,R88533/RE002,B_4,0,2024-07-24_15h36.15.857,2024-07-24 15:40:39,None,None,2,,,2.32672119140625,1,50,approach,shifted,reward,0.424,80,100,102,reject,1.3562713999999687,None,0,1705,"null",None,None,None
reward-effort-pgACC-TUS,R88533/RE002,B_4,0,2024-07-24_15h36.15.857,2024-07-24 15:40:39,None,None,2,,,2.32672119140625,2,51,approach,normal,reward,None,100,80,72,reject,1.8099350000265986,None,0,1705,"null",None,None,None
reward-effort-pgACC-TUS,R88533/RE002,B_4,0,2024-07-24_15h36.15.857,2024-07-24 15:40:39,None,None,2,,,2.32672119140625,2,52,approach,normal,reward,None,60,100,98,accept,4.136897100019269,success,98,1803,"[0.17050969282023032, 0.17050969282023032, 0.13116130216940794, 0.13116130216940794, 0.13116130216940794, 0.10492904173552635, 0.13116130216940794, 0.13116130216940794, 0.15739356260328952, 0.14427743238634871, 0.17050969282023032, 0.17050969282023032, 0.15739356260328952, 0.22297421368799347, 0.511529078460691, 0.511529078460691, 3.174103512499672, 6.4793683271687526, 12.39474305500905, 21.47110516513208, 21.47110516513208, 32.370609375409884, 41.72241022008866, 51.07421106476745, 51.07421106476745, 56.596101886099525, 62.35408305133653, 68.59736103460035, 68.59736103460035, 71.7321161564492, 77.62125862385561, 79.79853623986779, 79.79853623986779, 80.82159439678918, 80.86094278744, 80.41499436006401, 80.41499436006401, 80.10020723485742, 80.00839432333883, 80.44122662049789, 81.92334933501219, 81.92334933501219, 81.52986542850398, 79.7067233283492, 79.7067233283492, 78.867290994465, 78.04097479079772, 76.0735552582566, 72.26987749534376, 72.26987749534376, 71.52225807297815, 71.54849033341203, 71.54849033341203, 71.07630964560217, 70.11883213976549, 70.00078696781301, 70.90579995278193, 70.90579995278193, 71.23370320820544, 71.60095485427979, 72.21741297447602, 72.21741297447602, 72.93880013640775, 74.28976154875265, 75.91616169565332, 75.91616169565332, 77.30647149864905, 78.17213609296712, 78.2246006138349, 78.2246006138349, 78.23771674405184, 78.68366517142782, 78.97222003620053, 78.81482647359724, 78.81482647359724, 78.02785866058079, 77.45074893103538, 76.46703916476483, 76.46703916476483, 75.7850003934839, 74.87998740851499, 73.96185829332914, 73.96185829332914, 73.08307756879411, 72.19118071404212, 71.49602581254426, 71.49602581254426]",75.5499851422197,1.4520536999916658,None
reward-effort-pgACC-TUS,R88533/RE002,B_4,0,2024-07-24_15h36.15.857,2024-07-24 15:40:39,None,None,2,,,2.32672119140625,2,53,approach,normal,reward,None,85,60,55,reject,5.578529600054026,None,0,1803,"null",None,None,None
reward-effort-pgACC-TUS,R88533/RE002,B_4,0,2024-07-24_15h36.15.857,2024-07-24 15:40:39,None,None,2,,,2.32672119140625,2,54,approach,normal,reward,None,60,20,20,reject,2.0959898000583053,None,0,1803,"null",None,None,None
reward-effort-pgACC-TUS,R88533/RE002,B_4,0,2024-07-24_15h36.15.857,2024-07-24 15:40:39,None,None,2,,,2.32672119140625,2,55,approach,normal,reward,None,55,40,36,accept,0.971814899938181,success,36,1839,"[0.14427743238634871, 0.14427743238634871, 0.14427743238634871, 0.17050969282023032, 0.17050969282023032, 0.17050969282023032, 0.2098580834710527, 0.1967419532541119, 0.1967419532541119, 0.1967419532541119, 0.18362582303717112, 0.18362582303717112, 0.18362582303717112, 0.17050969282023032, 0.15739356260328952, 0.17050969282023032, 0.17050969282023032, 0.18362582303717112, 0.1967419532541119, 0.24920647412187508, 0.24920647412187508, 0.28855486477269743, 0.44594842737598694, 0.563993599328454, 0.563993599328454, 0.5902258597623358, 0.6033419899792766, 0.6164581201962174, 0.6426903806300989, 0.6426903806300989, 0.7345032921486845, 1.3771936727787835, 2.531413131869573, 2.531413131869573, 4.800503659400331, 7.725400697778127, 12.21111723197188, 12.21111723197188, 16.408278901392933, 23.176202093334382, 26.835602423860866, 26.835602423860866, 31.25573830696991, 34.88890637706251, 34.88890637706251, 39.63694551559508, 40.90921014663834, 45.02767503475775, 45.02767503475775, 48.634610844416464, 50.510217465439, 51.97922404973636, 51.97922404973636, 53.71055323837255, 55.03528239028357, 56.30754702132683, 56.30754702132683, 58.11757299126465, 59.46853440360956, 60.72768290443587, 60.72768290443587, 61.02935389942551, 60.93754098790692, 61.65892814983868, 61.65892814983868, 63.1148186039191, 64.07229610975578, 64.09852837018965, 64.09852837018965, 64.12476063062354, 64.41331549539623, 65.14781878754492, 65.35767687101598, 65.35767687101598, 65.14781878754492, 64.80679940190446, 64.80679940190446, 64.79368327168751, 64.57070905799954, 64.20345741192519, 64.21657354214213, 64.21657354214213, 64.29527032344377, 64.12476063062354, 64.12476063062354, 63.73127672411532, 63.1148186039191, 62.052412056346895, 62.052412056346895, 61.61957975918785, 61.88190236352666, 62.36719918155348, 62.36719918155348, 62.629521785892294, 62.800031478712526, 62.800031478712526, 62.800031478712526, 62.7606830880617, 62.86561212979722, 62.83937986936334, 62.83937986936334, 62.77379921827864, 62.800031478712526, 62.826263739146405, 62.826263739146405, 62.81314760892946, 62.7606830880617, 62.32785079090265, 62.32785079090265, 61.56711523832009, 60.806379685737525, 60.20303769575824, 60.20303769575824, 59.70462474751449]",62.299038308131,1.8912620999617502,None
