expName,curec_ID,trial_schedule,session_nr,date,start_time,end_time,duration,participant,age,gender,max_strength,block_number,trial_count,block_action_type,block_global_effort_state,block_attention_focus,trial_rating,trial_rating_time,trial_rating_random_start_pos,trial_effort,trial_outcome_level,trial_actual_outcome,response,response_time,result,points,cumulative_points,effort_trace,effort_expended,effort_response_time,final_bonus_payment
reward-effort-pgACC-TUS,R88533/RE002,B_2,1,2024-09-19_13h09.27.496,2024-09-19 13:10:57,None,None,2,,,2.094049072265625,1,1,approach,shifted,heart,None,None,None,85,80,80,accept,1.1001836999930674,success,80,80,"[1.5447886699952489, 1.5156417139576028, 1.5156417139576028, 1.559362148014072, 1.559362148014072, 1.5010682359387797, 1.5010682359387797, 1.530215191976426, 1.5156417139576028, 1.5156417139576028, 1.5156417139576028, 1.5156417139576028, 1.5156417139576028, 1.4864947579199566, 1.4864947579199566, 1.530215191976426, 1.5010682359387797, 1.5010682359387797, 1.5447886699952489, 1.5447886699952489, 1.5010682359387797, 1.5156417139576028, 1.5010682359387797, 1.5010682359387797, 1.5156417139576028, 1.530215191976426, 1.5447886699952489, 1.5156417139576028, 1.5156417139576028, 1.5010682359387797, 1.5156417139576028, 1.5156417139576028, 1.5156417139576028, 1.5010682359387797, 1.530215191976426, 1.530215191976426, 1.530215191976426, 1.530215191976426, 1.5156417139576028, 1.530215191976426, 1.559362148014072, 1.559362148014072, 1.5156417139576028, 1.5010682359387797, 1.559362148014072, 1.559362148014072, 1.530215191976426, 1.5739356260328952, 1.6176560600893644, 1.719670406221126, 1.719670406221126, 2.2151686588611117, 2.739813867538744, 3.1332977740469667, 3.1332977740469667, 3.38104690036696, 3.5122082025363683, 4.109720801308115, 4.925835570362209, 4.925835570362209, 6.19372815799982, 6.732946844696273, 7.6073555258256595, 9.76423027261148, 9.76423027261148, 12.110560233642, 13.830230639863125, 15.287578441745437, 17.10926319409832, 17.10926319409832, 20.781779654841745, 24.23569394530282, 26.742332164540393, 26.742332164540393, 29.35098472990973, 33.89790987178254, 39.873035859500014, 44.74057751778693, 44.74057751778693, 50.84686480767381, 55.860141246148956, 61.602091585565255, 65.52235717262867, 65.52235717262867, 70.1421497045956, 72.94025748420964, 72.94025748420964, 76.10270221429425, 77.70578479636478, 80.00839432333883, 83.0105307952164, 83.0105307952164, 84.86136250360693, 87.20769246463746, 88.11124810180448, 88.11124810180448, 87.89264593152214, 86.4790185636963, 85.57546292652927, 86.63932682190335, 86.63932682190335, 87.64489680520214, 88.67961374453859, 92.01694021084907, 92.01694021084907, 94.29040278178547, 97.11765751743717, 98.98306270384653, 98.98306270384653, 99.36197313233592, 99.36197313233592, 100.28010224752177, 101.63543570327232, 101.63543570327232, 103.82145740609579, 104.82702738939457, 105.65771563646751, 105.65771563646751, 106.88188779004864, 107.56684125693332, 107.9894721194792, 107.9894721194792, 108.65985210834506, 109.54883426749326, 110.43781642664148, 110.20464077834032, 110.20464077834032, 109.76743643777563, 109.57798122353091, 110.10262643220854, 110.10262643220854, 110.29208164645325, 109.24279122909799, 108.4266764600439, 108.4266764600439, 108.38295602598743, 108.747292976458, 108.41210298202506, 107.30451865259451, 107.30451865259451, 106.69243257580393, 106.40096301542748, 105.39539303212868, 105.39539303212868, 103.90889827420872, 103.51541436770052, 103.79231045005814, 103.79231045005814, 103.71944305996404, 103.55913480175698, 103.31138567543698, 103.96719218628402, 103.96719218628402, 105.80345041665574, 107.62513516900863, 108.67442558636388, 108.67442558636388, 109.24279122909799, 109.14077688296622, 109.0679094928721, 109.15535036098505, 109.15535036098505, 109.09705644890974, 108.3683825479686, 107.49397386683921, 107.49397386683921, 106.45925692750278, 105.89089128476867, 105.36624607609104]",106.30195589491862,2.820813199999975,None
reward-effort-pgACC-TUS,R88533/RE002,B_2,1,2024-09-19_13h09.27.496,2024-09-19 13:10:57,None,None,2,,,2.094049072265625,1,2,approach,shifted,heart,None,None,None,70,40,51,reject,2.9754932000068948,None,0,80,"null",None,None,None
reward-effort-pgACC-TUS,R88533/RE002,B_2,1,2024-09-19_13h09.27.496,2024-09-19 13:10:57,None,None,2,,,2.094049072265625,1,3,approach,shifted,heart,None,None,None,60,20,20,reject,1.992449099998339,None,0,80,"null",None,None,None
reward-effort-pgACC-TUS,R88533/RE002,B_2,1,2024-09-19_13h09.27.496,2024-09-19 13:10:57,None,None,2,,,2.094049072265625,1,4,approach,shifted,heart,None,None,None,70,20,20,accept,2.373873000004096,success,20,100,"[1.0784373733929096, 1.0638638953740867, 1.0638638953740867, 1.0638638953740867, 1.0638638953740867, 1.0638638953740867, 1.0784373733929096, 1.0784373733929096, 1.0638638953740867, 1.0638638953740867, 1.0930108514117327, 1.0784373733929096, 1.0930108514117327, 1.0930108514117327, 1.0930108514117327, 1.0930108514117327, 1.0930108514117327, 1.0930108514117327, 1.0930108514117327, 1.0638638953740867, 1.0784373733929096, 1.0930108514117327, 1.0930108514117327, 1.0930108514117327, 1.1367312854682021, 1.1804517195246713, 1.1804517195246713, 1.3261864997129025, 1.5447886699952489, 1.7925377963152418, 2.0548604006540576, 2.0548604006540576, 2.3026095269740505, 2.492064741218751, 2.652372999425805, 2.652372999425805, 2.943842559802267, 3.2498855981975523, 3.3664734223481365, 3.3664734223481365, 3.5850755926304836, 3.8911186310257686, 4.386616883665754, 4.386616883665754, 4.736380356117509, 5.2610255647951405, 6.237448592056288, 6.718373366677451, 6.718373366677451, 7.170151185260967, 8.190294646578584, 9.909965052799711, 9.909965052799711, 12.008545887510238, 14.13627367825841, 16.570044507401867, 16.570044507401867, 19.717915759467658, 24.031665253039296, 27.296124329255672, 30.79375905377322, 30.79375905377322, 33.88333639376371, 35.42812506375896, 39.66900716723649, 39.66900716723649, 42.90431928741521, 44.303373177222234, 46.605982704196286, 46.605982704196286, 50.599115681353815, 53.09118042257257, 55.495804295678376, 55.495804295678376, 57.667252520483025, 60.59652160226646, 63.04486590942875, 63.04486590942875, 65.31832848036515, 68.131009737998, 69.53006362780502, 71.0311318637438, 71.0311318637438, 72.57592053373905, 73.97497442354607, 74.01869485760254, 72.91111052817199, 72.91111052817199, 70.75423578138617, 66.96513149649216, 64.72081588159341, 64.72081588159341, 64.341905453104, 64.73538935961223, 65.26003456828985, 65.26003456828985, 64.837403705744, 64.67709544753694, 65.55150412866631, 65.55150412866631, 69.1365797212968, 71.87639358883555, 74.16442963779078, 76.37959829665189, 76.37959829665189, 77.80779914249655, 79.99382084532002, 82.64619384474582, 82.64619384474582, 84.68648076738106, 87.49916202501392, 87.49916202501392, 87.49916202501392, 88.34442375010565, 89.72890416189385, 90.8947824033997, 90.8947824033997, 92.36670368330083, 93.13909801829845, 94.04265365546549, 95.57286884744191, 95.57286884744191, 97.55486185800186, 98.61872575337594, 99.1579444400724, 99.1579444400724, 99.07050357195945, 98.09408054469831, 97.51114142394539, 97.23424534158774, 97.23424534158774, 97.13223099545598, 96.92820230319245, 96.7678940449854, 96.7678940449854, 97.11765751743717, 97.14680447347482, 95.95177927593132, 95.95177927593132, 94.82962146848195, 94.26125582574784, 93.7949045291455, 93.7949045291455, 93.56172888084433, 92.80390802386552, 91.66717673839733, 91.66717673839733, 90.54501893094795, 90.10781459038326, 90.09324111236442, 89.9475063321762, 89.9475063321762, 89.5685959036868, 89.04395069500917, 88.97108330491504, 88.97108330491504, 89.2479793872727, 89.20425895321623, 88.60674635444447, 88.60674635444447, 88.21326244793624, 88.15496853586096, 88.59217287642565, 88.59217287642565, 88.70876070057622, 88.21326244793624, 87.64489680520214, 87.64489680520214, 87.5574559370892, 87.95093984359742, 87.9946602776539, 87.9946602776539]",92.08957627589527,2.84688240000105,None
reward-effort-pgACC-TUS,R88533/RE002,B_2,1,2024-09-19_13h09.27.496,2024-09-19 13:10:57,None,None,2,,,2.094049072265625,1,5,approach,shifted,heart,None,None,None,80,100,105,accept,0.7856805000046734,success,105,205,"[2.025713444616412, 2.0402869226352345, 2.0402869226352345, 2.0402869226352345, 2.011139966597588, 2.011139966597588, 2.025713444616412, 2.011139966597588, 2.011139966597588, 1.9965664885787653, 2.0694338786728808, 2.0694338786728808, 2.0402869226352345, 2.0402869226352345, 2.0694338786728808, 2.0694338786728808, 2.0694338786728808, 2.0548604006540576, 2.084007356691704, 2.0548604006540576, 2.0694338786728808, 2.0694338786728808, 2.11315431272935, 2.142301268766996, 2.3609034390493426, 2.3609034390493426, 2.798107779614036, 3.220738642159906, 4.109720801308115, 4.678086444042216, 4.678086444042216, 5.989699465736296, 7.199298141298613, 10.157714179119704, 10.157714179119704, 12.99954239279021, 15.885091040517182, 19.980238363806475, 23.973371340964007, 23.973371340964007, 27.981077796140358, 34.451702036497814, 40.76201801864822, 40.76201801864822, 45.42553098467161, 52.75599042813963, 59.022585976233565, 59.022585976233565, 63.074012865466386, 63.074012865466386, 65.82840021102396, 68.58278755658152, 68.58278755658152, 70.47733969902853, 73.1734331325108, 75.43232222542838, 77.22486002174362, 77.22486002174362, 78.842516081833, 80.34358431777177, 81.48031560323997, 81.48031560323997, 83.11254514134816, 84.67190728936224, 85.91065292096219, 87.03281072841158, 87.03281072841158, 88.72333417859505, 89.81634503000679, 88.60674635444447, 88.60674635444447, 89.16053851915974, 92.14810151301849, 94.75675407838781, 95.51457493536662, 94.62559277621841, 94.42156408395489, 94.42156408395489, 93.89691887527725, 92.70189367773376, 92.70189367773376, 92.23554238113142, 93.05165715018552, 93.05165715018552, 94.3632701718796, 95.29597276508427, 95.54372189140426, 95.8206179737619, 95.8206179737619, 96.44727752857129, 96.44727752857129, 96.52014491866542, 96.66587969885364, 96.66587969885364, 96.57843883074071, 96.79704100102306, 97.11765751743717, 97.11765751743717, 97.68602316017126, 97.68602316017126, 97.74431707224656, 98.03578663262303, 98.03578663262303, 98.05036011064185, 97.91919880847243, 98.31268271498065, 98.31268271498065, 98.48756445120654, 97.27796577564422, 93.24111236443021, 93.24111236443021, 89.10224460708446, 88.78162809067035, 89.14596504114093, 89.55402242566797, 89.55402242566797, 89.81634503000679, 91.30283978792674, 92.48329150745141, 92.48329150745141, 92.64359976565846, 92.19182194707494, 91.62345630434086, 92.58530585358318, 92.58530585358318, 93.37227366659963, 93.91149235329608, 96.54929187470306, 96.54929187470306, 98.18152141281125, 98.88104835771476, 99.85747138497591, 99.85747138497591, 100.2218083354465, 101.0524965825194, 101.79574396147937, 101.76659700544172, 101.76659700544172, 101.63543570327232, 102.97619568100404, 104.06920653241578, 104.06920653241578, 104.69586608722518, 104.72501304326283, 104.214941312604, 103.95261870826519, 103.95261870826519, 103.61742871383225, 103.18022437326758, 102.96162220298524, 102.96162220298524, 102.58271177449583, 102.71387307666524, 102.87418133487229, 102.58271177449583, 102.58271177449583, 101.8686113515735, 101.37311309893352, 100.77560050016177, 100.77560050016177, 100.5424248518606, 99.88661834101356, 99.56600182459945, 99.56600182459945, 99.08507704997828, 98.42927053913124, 98.07950706667948, 98.07950706667948, 97.99206619856655, 98.00663967658537, 97.91919880847243, 97.64230272611479, 97.64230272611479, 97.59858229205832, 97.17595142951245, 96.2578223143266, 95.17938494093369, 95.17938494093369, 96.98649621526776, 98.12322750073595, 98.13780097875477, 98.13780097875477, 98.13780097875477, 98.38555010507477, 98.80818096762064]",99.75193119738796,3.0847600999986753,None
reward-effort-pgACC-TUS,R88533/RE002,B_2,1,2024-09-19_13h09.27.496,2024-09-19 13:10:57,None,None,2,,,2.094049072265625,1,6,approach,shifted,heart,None,None,None,55,40,36,reject,2.954100600007223,None,0,205,"null",None,None,None
reward-effort-pgACC-TUS,R88533/RE002,B_2,1,2024-09-19_13h09.27.496,2024-09-19 13:10:57,None,None,2,,,2.094049072265625,1,7,approach,shifted,heart,None,None,None,70,80,70,accept,1.2243280000111554,success,70,275,"[0.5829391207529242, 0.5683656427341011, 0.5829391207529242, 0.5829391207529242, 0.5975125987717472, 0.5975125987717472, 0.5537921647152779, 0.5246452086776318, 0.5246452086776318, 0.5829391207529242, 0.5829391207529242, 0.5829391207529242, 0.5683656427341011, 0.5683656427341011, 0.5829391207529242, 0.5683656427341011, 0.5829391207529242, 0.5975125987717472, 0.5975125987717472, 0.5975125987717472, 0.6412330328282165, 0.6703799888658627, 0.6703799888658627, 0.699526944903509, 0.8306882470729169, 1.0930108514117327, 1.0930108514117327, 1.5156417139576028, 2.084007356691704, 2.521211697256397, 2.7106669115010975, 2.7106669115010975, 2.95841603782109, 3.206165164141083, 3.672516460743422, 3.672516460743422, 4.197161669421054, 4.663512966023394, 5.071570350550441, 5.071570350550441, 5.523348169133956, 6.1791546799809955, 6.805814234790389, 7.461620745637429, 7.461620745637429, 8.6420724651621, 9.778803750630303, 10.65321243175969, 10.65321243175969, 11.950251975434945, 12.897528046658447, 14.121700200239587, 16.584617985420692, 16.584617985420692, 20.067679231919413, 23.11353613785344, 26.75690564255922, 26.75690564255922, 29.35098472990973, 32.84861945442727, 35.5738598439472, 35.5738598439472, 38.44483501365535, 41.1263549691188, 43.00633363354698, 43.67671362241284, 43.67671362241284, 44.47825491344811, 44.900885775993984, 45.22150229240809, 45.22150229240809, 46.19792531966924, 47.97588963796566, 51.298642626257326, 51.298642626257326, 54.06760344983371, 58.35220598736771, 58.35220598736771, 61.38348941528291, 61.38348941528291, 63.21974764565462, 65.79925325498631, 68.27674451818623, 68.27674451818623, 69.47176971572974, 70.98741142968734, 72.8673900941155, 72.8673900941155, 73.30459443468021, 73.8000926873202, 73.24630052260493, 73.24630052260493, 73.0422718303414, 73.96040094552725, 75.08255875297662, 75.8841000440119, 75.8841000440119, 76.72936176910365, 77.60377045023303, 78.39073826324947, 78.39073826324947, 78.842516081833, 78.43445869730594, 78.4053117412683, 79.1631325982471, 79.1631325982471, 80.92652343852468, 83.03967775125405, 83.15626557540463, 83.15626557540463, 82.41301819644465, 82.12154863606818, 82.42759167446347, 82.42759167446347, 83.14169209738581, 83.5206025258752, 84.17640903672225, 84.77392163549399, 86.77048812407276, 88.08210114576683, 88.86906895878329, 88.86906895878329, 89.30627329934798, 89.30627329934798, 89.00023026095269, 88.92736287085857, 88.92736287085857, 89.75805111793149, 90.9676497934938, 91.5214419582091, 91.8420584746232, 91.8420584746232, 92.38127716131966, 92.847628457922, 92.48329150745141, 92.48329150745141, 91.71089717245378, 91.57973587028438, 92.2209689031126, 92.2209689031126, 92.20639542509377, 91.41942761207733, 91.41942761207733, 91.41942761207733, 91.71089717245378, 91.5214419582091, 90.76362110123029, 89.42286112349856, 89.42286112349856, 88.53387896435035, 87.57202941510803, 86.95994333831746, 86.95994333831746, 86.94536986029864, 86.84335551416687, 86.58103290982805, 86.58103290982805, 86.668473777941, 87.20769246463746, 87.6740437612398, 88.02380723369154, 88.02380723369154, 88.16954201387978, 88.34442375010565, 88.72333417859505, 88.72333417859505, 89.07309765104681, 89.01480373897151, 89.08767112906564, 89.17511199717858, 89.17511199717858, 88.98565678293387, 89.1313915631221, 91.37570717802086, 91.37570717802086, 93.06623062820434, 93.7949045291455, 93.80947800716432, 93.80947800716432, 93.8677719192396]",89.82976188278602,2.9973038000025554,None
reward-effort-pgACC-TUS,R88533/RE002,B_2,1,2024-09-19_13h09.27.496,2024-09-19 13:10:57,None,None,2,,,2.094049072265625,1,8,approach,shifted,heart,0.1,6.975580600003013,10,85,80,77,reject,1.1167729000007967,None,0,275,"null",None,None,None
reward-effort-pgACC-TUS,R88533/RE002,B_2,1,2024-09-19_13h09.27.496,2024-09-19 13:10:57,None,None,2,,,2.094049072265625,1,9,approach,shifted,heart,None,None,None,100,20,19,reject,0.9759359999879962,None,0,275,"null",None,None,None
reward-effort-pgACC-TUS,R88533/RE002,B_2,1,2024-09-19_13h09.27.496,2024-09-19 13:10:57,None,None,2,,,2.094049072265625,1,10,approach,shifted,heart,None,None,None,50,60,63,accept,1.2025629000127083,success,63,338,"[0.7141004229223321, 0.8161147690540937, 0.8161147690540937, 0.8306882470729169, 0.8306882470729169, 0.8306882470729169, 0.8015412910352707, 0.8015412910352707, 0.8015412910352707, 0.8306882470729169, 0.8015412910352707, 0.8015412910352707, 0.7869678130164476, 0.8306882470729169, 0.8161147690540937, 0.8161147690540937, 0.84526172509174, 0.8161147690540937, 0.8306882470729169, 0.859835203110563, 0.859835203110563, 1.0347169393364404, 1.253319109618787, 1.7779643182964187, 1.7779643182964187, 2.2151686588611117, 2.7252403895199206, 3.1770182081034366, 3.1770182081034366, 3.439340812442252, 4.080573845270469, 4.4449107957410465, 4.4449107957410465, 4.911262092343386, 5.858538163566887, 6.703799888658628, 8.36517638280446, 8.36517638280446, 10.755226777891451, 12.095986755623175, 14.719212799011336, 14.719212799011336, 19.236990984846496, 25.38699870878985, 34.684877684798984, 34.684877684798984, 43.41439101807403, 52.1001839172926, 55.860141246148956, 59.43064336076061, 59.43064336076061, 62.11216331622407, 63.846407200464014, 63.846407200464014, 66.06157585932513, 68.90340407299563, 69.55921058384268, 70.44819274299088, 70.44819274299088, 72.18243662723083, 73.15885965449198, 73.15885965449198, 72.5467735777014, 72.5467735777014, 71.92011402289201, 71.42461577025203, 71.42461577025203, 71.43918924827085, 71.5266301163838, 71.48290968232732, 71.48290968232732, 71.17686664393203, 70.81252969346146, 70.85625012751792, 71.43918924827085, 71.43918924827085, 71.87639358883555, 72.00755489100496, 71.94926097892966, 71.94926097892966, 71.96383445694849, 72.45933270958848, 73.9312539894896, 73.9312539894896, 75.89867352203072, 77.29772741183774, 78.44903217532476, 78.44903217532476, 79.65863085088708, 82.7627816688964, 84.40958468502342, 84.6573338113434, 84.6573338113434, 84.00152730049638, 83.59346991596932, 83.62261687200697, 83.62261687200697, 83.60804339398814, 82.90851644908463, 80.82450909239294, 80.82450909239294, 78.50732608740006, 77.38516827995068, 77.57462349419538, 77.57462349419538, 77.92438696664713, 77.99725435674125, 77.92438696664713, 77.92438696664713, 77.89524001060948, 77.99725435674125, 78.02640131277889, 77.60377045023303, 77.60377045023303, 76.90424350532952, 75.82580613193662, 74.25187050590371, 74.25187050590371, 74.09156224769666, 75.22829353316486, 75.84037960995543, 75.84037960995543]",76.24612374400331,2.035837799994624,None
reward-effort-pgACC-TUS,R88533/RE002,B_2,1,2024-09-19_13h09.27.496,2024-09-19 13:10:57,None,None,2,,,2.094049072265625,1,11,approach,shifted,heart,None,None,None,55,40,41,accept,1.2306957999971928,success,41,379,"[0.699526944903509, 0.699526944903509, 0.684953466884686, 0.684953466884686, 0.684953466884686, 0.684953466884686, 0.699526944903509, 0.699526944903509, 0.699526944903509, 0.699526944903509, 0.6703799888658627, 0.8161147690540937, 1.9382725765034727, 1.9382725765034727, 3.4247673344234295, 4.532351663853985, 5.49420121309631, 5.49420121309631, 6.849534668846859, 8.860674635444447, 11.64420893703966, 11.64420893703966, 14.952388447312504, 20.592324440597046, 27.83534301595213, 34.26224682225312, 34.26224682225312, 44.259652743165766, 52.18762478540553, 55.189761257283095, 57.57981165237008, 57.57981165237008, 59.9844355254759, 62.534794178769936, 62.534794178769936, 64.72081588159341, 66.33847194168277, 68.378758864318, 68.378758864318, 70.8999705615744, 72.31359792940025, 73.96040094552725, 74.4996196322237, 75.15542614307074, 75.15542614307074, 75.47604265948486, 76.5107595988213, 76.5107595988213, 77.44346219202598, 77.66206436230831, 77.99725435674125, 77.99725435674125, 79.09026520815299, 79.6003369388118, 79.62948389484944, 79.62948389484944, 79.51289607069886, 79.96467388928237, 79.87723302116943, 79.87723302116943, 79.1048386861718, 78.94453042796475, 79.49832259268003, 79.49832259268003, 79.71692476296238, 79.58576346079298, 79.36716129051062, 79.22142651032239, 79.22142651032239, 78.76964869173887, 78.28872391711771, 78.01182783476007, 78.01182783476007, 77.70578479636478, 77.53090306013891, 77.47260914806363, 77.34144784589421, 77.34144784589421, 77.19571306570599, 77.16656610966834, 77.67663784032715, 77.67663784032715, 78.69678130164476, 79.01739781805887, 79.20685303230357, 79.20685303230357, 79.52746954871768, 79.58576346079298, 79.52746954871768, 79.52746954871768, 79.5420430267365, 79.58576346079298, 79.62948389484944, 79.62948389484944, 78.95910390598357, 78.39073826324947, 78.17213609296712, 78.17213609296712, 77.98268087872243, 77.60377045023303, 77.1519926316495, 77.1519926316495, 77.00625785146129, 77.00625785146129]",78.25680106050507,1.7306181999883847,None
reward-effort-pgACC-TUS,R88533/RE002,B_2,1,2024-09-19_13h09.27.496,2024-09-19 13:10:57,None,None,2,,,2.094049072265625,1,12,approach,shifted,heart,None,None,None,80,60,68,reject,1.1856871000054525,None,0,379,"null",None,None,None
reward-effort-pgACC-TUS,R88533/RE002,B_2,1,2024-09-19_13h09.27.496,2024-09-19 13:10:57,None,None,2,,,2.094049072265625,1,13,approach,shifted,heart,None,None,None,90,40,27,reject,0.8212160999974003,None,0,379,"null",None,None,None
reward-effort-pgACC-TUS,R88533/RE002,B_2,1,2024-09-19_13h09.27.496,2024-09-19 13:10:57,None,None,2,,,2.094049072265625,1,14,approach,shifted,heart,None,None,None,50,20,21,reject,0.7331871000060346,None,0,379,"null",None,None,None
reward-effort-pgACC-TUS,R88533/RE002,B_2,1,2024-09-19_13h09.27.496,2024-09-19 13:10:57,None,None,2,,,2.094049072265625,1,15,approach,shifted,heart,0.2,4.940520899996045,8,50,20,20,reject,1.0074049000104424,None,0,379,"null",None,None,None
reward-effort-pgACC-TUS,R88533/RE002,B_2,1,2024-09-19_13h09.27.496,2024-09-19 13:10:57,None,None,2,,,2.094049072265625,1,16,approach,shifted,heart,None,None,None,95,60,56,reject,0.6003974999912316,None,0,379,"null",None,None,None
reward-effort-pgACC-TUS,R88533/RE002,B_2,1,2024-09-19_13h09.27.496,2024-09-19 13:10:57,None,None,2,,,2.094049072265625,1,17,approach,shifted,heart,None,None,None,70,60,49,accept,1.4274809999915306,success,49,428,"[0.3497634724517545, 0.32061651641410827, 0.32061651641410827, 0.33518999443293135, 0.33518999443293135, 0.3497634724517545, 0.3497634724517545, 0.3497634724517545, 0.3060430383952851, 0.32061651641410827, 0.3497634724517545, 0.3497634724517545, 0.36433695047057757, 0.3497634724517545, 0.3497634724517545, 0.36433695047057757, 0.36433695047057757, 0.33518999443293135, 0.3497634724517545, 0.3060430383952851, 0.3060430383952851, 0.36433695047057757, 0.36433695047057757, 0.33518999443293135, 0.33518999443293135, 0.3497634724517545, 0.36433695047057757, 0.36433695047057757, 0.36433695047057757, 0.3934839065082238, 0.4080573845270469, 0.48092477462116245, 0.6266595548093935, 0.6266595548093935, 0.9618495492423249, 1.282466065656433, 1.7779643182964187, 1.7779643182964187, 2.3171830049928737, 3.1915916861222597, 4.153441235364585, 4.153441235364585, 5.275599042813964, 6.5872120645080425, 8.627498987143277, 8.627498987143277, 11.615061981002013, 13.086983260903148, 16.176560600893644, 21.204410517387615, 21.204410517387615, 26.319701301994524, 32.192812943580236, 35.29696376158956, 35.29696376158956, 39.11521500252121, 43.662140144394016, 45.26522272646456, 45.26522272646456, 46.92659922061039, 48.42766745654917, 50.94887915380557, 50.94887915380557, 53.71783997738196, 58.0898833830289, 58.0898833830289, 60.33419899792764, 60.33419899792764, 62.69510243697699, 64.67709544753694, 68.626507990638, 68.626507990638, 72.34274488543788, 74.60163397835547, 76.72936176910365, 76.72936176910365, 77.92438696664713, 80.22699649362119, 82.16526907012465, 82.16526907012465, 82.36929776238819, 82.83564905899053, 84.29299686087283, 86.21669595935748, 87.52830898105157, 87.49916202501392, 87.49916202501392, 87.03281072841158, 87.03281072841158, 86.44987160765865, 85.70662422869867, 85.7211977067175, 85.7211977067175, 85.80863857483043, 85.4734485803975, 84.75934815747517, 84.24927642681637, 84.24927642681637, 84.45330511907989, 84.59903989926812, 84.22012947077872, 84.22012947077872, 83.69548426210109, 82.90851644908463, 82.92308992710346, 82.92308992710346, 84.526172509174, 85.98352031105631, 87.45544159095745, 87.45544159095745, 89.05852417302799, 90.9676497934938, 92.54158541952671, 92.54158541952671, 93.08080410622316, 93.1682449743361, 93.7366106170702, 93.7366106170702, 93.96978626537137, 93.96978626537137, 94.72760712235018, 94.72760712235018, 95.00450320470782, 94.78590103442546, 94.1155210455596, 93.6054493149008, 93.6054493149008, 93.35770018858081, 92.99336323811022, 92.29383629320671, 92.29383629320671, 91.49229500217145, 91.31741326594558, 91.21539891981381, 91.21539891981381, 90.15153502443972, 88.59217287642565, 87.6157498491645, 87.6157498491645, 87.86349897548449, 88.22783592595506, 88.3735707061433, 88.3735707061433, 88.27155636001154, 88.08210114576683, 88.22783592595506, 88.49015853029388, 88.49015853029388, 88.72333417859505, 88.70876070057622, 88.6941872225574, 88.6941872225574, 89.20425895321623, 89.43743460151738, 89.53944894764915, 89.53944894764915, 89.42286112349856, 90.26812284859031, 91.20082544179499, 91.20082544179499, 91.08423761764439, 89.59774285972443, 89.49572851359268, 89.49572851359268, 90.69075371113617, 91.57973587028438, 91.47772152415263, 91.47772152415263]",90.69385953432051,2.7908269000035943,None
reward-effort-pgACC-TUS,R88533/RE002,B_2,1,2024-09-19_13h09.27.496,2024-09-19 13:10:57,None,None,2,,,2.094049072265625,1,18,approach,shifted,heart,None,None,None,80,40,38,accept,1.045729499994195,success,38,466,"[0.48092477462116245, 0.4663512966023393, 0.4663512966023393, 0.4663512966023393, 0.49549825263998554, 0.49549825263998554, 0.5246452086776318, 0.5100717306588086, 0.49549825263998554, 0.48092477462116245, 0.48092477462116245, 0.5246452086776318, 0.48092477462116245, 0.49549825263998554, 0.49549825263998554, 0.48092477462116245, 0.49549825263998554, 0.49549825263998554, 0.49549825263998554, 0.5100717306588086, 0.5829391207529242, 0.6703799888658627, 0.6703799888658627, 1.1367312854682021, 1.6176560600893644, 2.7835343015952128, 3.4247673344234295, 3.4247673344234295, 4.066000367251646, 4.532351663853985, 4.969556004418679, 4.969556004418679, 6.091713811868058, 7.18472466327979, 9.939112008837357, 9.939112008837357, 11.804517195246714, 13.130703694959617, 16.395162771175993, 16.395162771175993, 20.359148792295876, 25.11010262643221, 28.855486477269743, 28.855486477269743, 34.39340812442253, 37.97848371705301, 43.458111452130495, 43.458111452130495, 45.644133154953956, 48.79200440701975, 51.76499392285966, 51.76499392285966, 52.581108691913755, 53.25148868077962, 55.0731734331325, 55.0731734331325, 57.47779730623832, 60.421639866040586, 62.797116783108756, 62.797116783108756, 65.95956151319336, 68.11643625997918, 70.53563361110382, 70.53563361110382, 73.11513922043551, 76.39417177467071, 77.04997828551775, 77.04997828551775, 78.25957696108007, 79.5420430267365, 82.51503254257642, 82.51503254257642, 84.19098251474107, 86.27498987143277, 86.71219421199746, 86.84335551416687, 86.84335551416687, 88.02380723369154, 88.97108330491504, 92.10438107896202, 92.10438107896202, 93.48886149075021, 95.10651755083957, 95.10651755083957, 95.10651755083957, 95.95177927593132, 96.0683671000819, 95.73317710564896, 95.73317710564896, 95.36884015517839, 95.20853189697134, 95.83519145178073, 95.83519145178073, 96.98649621526776, 96.53471839668424, 95.10651755083957, 94.08637408952195, 94.08637408952195, 94.13009452357842, 95.2522523310278, 95.95177927593132, 95.95177927593132, 96.30154274838307, 97.32168620970069, 97.90462533045361, 97.90462533045361, 98.38555010507477, 98.60415227535711, 99.27453226422298, 99.27453226422298, 99.71173660478767, 99.23081183016652, 98.48756445120654, 98.50213792922536, 98.50213792922536, 99.25995878620417, 99.65344269271237, 99.65344269271237, 100.4841309397853, 102.1163604778935, 102.52441786242052, 100.74645354412412, 100.74645354412412, 100.06150007723944, 99.37654661035474, 98.19609489083008, 98.19609489083008, 97.8900518524348, 98.32725619299949, 98.66244618743241, 98.66244618743241, 99.4785609564865, 100.6152922419547, 102.45155047232642, 102.45155047232642, 104.65214565316872, 105.11849694977104, 105.06020303769574, 105.06020303769574, 105.10392347175221, 105.54112781231693, 105.20593781788399, 103.71944305996404, 103.71944305996404]",98.8058677171415,2.3904609000019263,None
reward-effort-pgACC-TUS,R88533/RE002,B_2,1,2024-09-19_13h09.27.496,2024-09-19 13:10:57,None,None,2,,,2.094049072265625,1,19,approach,shifted,heart,None,None,None,65,60,73,accept,0.8534180000133347,success,73,539,"[0.684953466884686, 0.6412330328282165, 0.6412330328282165, 0.6266595548093935, 0.6266595548093935, 0.6412330328282165, 0.6412330328282165, 0.6703799888658627, 0.6703799888658627, 0.6266595548093935, 0.6558065108470397, 0.684953466884686, 0.684953466884686, 0.684953466884686, 0.7286739009411551, 0.8161147690540937, 0.8161147690540937, 1.0492904173552635, 1.282466065656433, 1.836258230371711, 2.331756483011697, 2.331756483011697, 2.812681257632859, 3.1770182081034366, 3.3664734223481365, 3.3664734223481365, 3.5413551585740137, 3.832824718950476, 4.18258819140223, 4.18258819140223, 4.372043405646931, 4.4449107957410465, 4.605219053948101, 4.8529681802680935, 4.8529681802680935, 5.246452086776317, 5.756523817435126, 6.441477284319812, 6.441477284319812, 7.884251608183298, 9.793377228649124, 12.285441969867875, 12.285441969867875, 14.442316716653696, 18.55203751796181, 23.94422438492636, 23.94422438492636, 27.208683461142734, 29.890203416606187, 35.0054942012131, 39.231802826671796, 39.231802826671796, 43.28322971590462, 44.82801838589987, 48.456814412586816, 52.508241301819645, 54.08217692785253, 54.08217692785253, 55.9475821142619, 59.32862901462885, 59.32862901462885, 61.66038549764055, 64.03586241470872, 67.8103932215839, 70.273311006765, 70.273311006765, 71.92011402289201, 73.63978442911315, 75.15542614307074, 75.15542614307074, 75.5051896155225, 75.86952656599307, 76.0735552582566, 76.0735552582566, 76.87509654929188, 77.09369871957422, 76.91881698334834, 76.91881698334834, 76.5690535108966, 76.77308220316012, 77.18113958768716, 77.18113958768716, 77.42888871400714, 77.48718262608244, 78.01182783476007, 78.71135477966358, 78.71135477966358, 79.32344085645416, 80.25614344965884, 80.16870258154589, 80.16870258154589, 78.842516081833, 77.67663784032715, 76.13184917033189, 76.13184917033189, 72.44475923156965, 71.38089533619556, 71.41004229223321, 71.41004229223321, 71.71608533062849, 72.03670184704261, 72.64878792383317, 72.64878792383317, 73.8729600774143, 74.19357659382842, 72.64878792383317, 71.04570534176263, 71.04570534176263, 70.21501709468971, 70.21501709468971, 72.10956923713671, 72.10956923713671, 74.57248702231783, 77.73493175240243, 79.96467388928237, 79.96467388928237, 83.27285339955522, 84.39501120700459, 84.39501120700459, 84.43873164106105, 84.43873164106105, 85.6046098825669, 86.90164942624217, 87.49916202501392, 87.49916202501392, 88.22783592595506, 88.16954201387978, 87.47001506897627, 87.47001506897627, 87.09110464048688, 86.7996350801104, 87.09110464048688, 87.09110464048688, 87.52830898105157, 87.6157498491645, 87.49916202501392, 87.49916202501392, 86.71219421199746, 85.67747727266102, 84.97795032775751, 84.74477467945634, 84.74477467945634, 84.42415816304224, 83.92865991040226, 83.92865991040226, 83.92865991040226, 84.39501120700459, 85.19655249803986, 85.88150596492456, 85.88150596492456, 85.98352031105631, 85.99809378907514, 85.95437335501866, 85.77949161879279, 85.77949161879279, 85.83778553086809, 85.83778553086809, 85.61918336058574, 85.61918336058574, 85.51716901445397, 85.70662422869867, 86.05638770115043, 86.05638770115043, 86.12925509124454, 86.1584020472822, 86.69762073397864, 86.69762073397864, 87.70319071727744, 88.76705461265152, 90.8947824033997, 90.8947824033997, 92.32298324924436, 92.26468933716907, 91.88577890867967, 91.88577890867967, 91.62345630434086, 90.98222327151264, 89.96207981019502, 89.96207981019502]",86.87296512030035,2.9880035999958636,None
reward-effort-pgACC-TUS,R88533/RE002,B_2,1,2024-09-19_13h09.27.496,2024-09-19 13:10:57,None,None,2,,,2.094049072265625,1,20,approach,shifted,heart,None,None,None,60,40,40,reject,0.8576020000036806,None,0,539,"null",None,None,None
reward-effort-pgACC-TUS,R88533/RE002,B_2,1,2024-09-19_13h09.27.496,2024-09-19 13:10:57,None,None,2,,,2.094049072265625,1,21,approach,shifted,heart,None,None,None,65,60,56,accept,0.7042681000020821,success,56,595,"[0.4372043405646931, 0.4372043405646931, 0.4372043405646931, 0.4372043405646931, 0.45177781858351623, 0.45177781858351623, 0.49549825263998554, 0.48092477462116245, 0.48092477462116245, 0.48092477462116245, 0.4663512966023393, 0.5100717306588086, 0.45177781858351623, 0.4663512966023393, 0.4663512966023393, 0.48092477462116245, 0.5246452086776318, 0.5537921647152779, 0.5537921647152779, 0.5975125987717472, 0.859835203110563, 1.413627367825841, 1.413627367825841, 1.9236990984846498, 2.550358653294043, 3.5559286365928373, 3.5559286365928373, 4.488631229797516, 5.2610255647951405, 6.19372815799982, 6.19372815799982, 6.9952694490350895, 8.787807245350333, 10.143140701100881, 10.143140701100881, 11.921105019397299, 12.853807612601978, 14.427743238634871, 17.590187968719487, 17.590187968719487, 20.927514435029977, 23.492446566342842, 26.275980867938053, 26.275980867938053, 28.826339521232097, 31.391271652544965, 34.90347985508133, 34.90347985508133, 38.05135110714713, 41.0680610570435, 43.224935803829325, 43.35609710599873, 43.35609710599873, 43.35609710599873, 42.74401102920816, 41.709294089871726, 41.709294089871726, 41.66557365581525, 42.49626190288817, 43.76415449052578, 43.76415449052578, 46.21249879768806, 49.97245612654442, 52.85800477427139, 55.64153907586661, 55.64153907586661, 58.177324251141826, 61.529224195471144, 61.529224195471144, 63.78811328838873, 66.01785542526866, 69.2531675454474, 69.99641492440738, 69.99641492440738, 70.15672318261443, 70.57935404516029, 71.54120359440262, 71.54120359440262, 72.53220009968258, 71.75980576468496, 69.99641492440738, 69.99641492440738, 67.51892366120744, 65.95956151319336, 65.33290195838397, 65.33290195838397, 64.88112413980046, 64.7791097936687, 66.32389846366394, 66.32389846366394, 68.0581423479039, 68.94712450705211, 69.1365797212968, 69.1365797212968, 69.79238623214384, 71.70151185260967, 73.14428617647316, 73.14428617647316, 75.47604265948486, 77.26858045580009, 78.9153834719271, 79.52746954871768, 79.52746954871768, 79.7314982409812, 79.61491041683063, 80.97024387258116, 82.879369493047, 83.05425122927286, 83.05425122927286, 82.92308992710346, 82.92308992710346, 81.49488908125879, 81.15969908682587, 82.39844471842582, 82.39844471842582, 83.88493947634579, 84.526172509174, 84.46787859709872, 84.46787859709872, 84.46787859709872, 84.46787859709872, 84.58446642124929, 84.86136250360693, 84.86136250360693, 84.45330511907989, 83.7683516521952, 83.81207208625166, 83.81207208625166, 84.07439469059048, 84.49702555313635, 84.46787859709872, 84.46787859709872, 83.50602904785637, 82.879369493047, 82.83564905899053, 82.79192862493406, 82.79192862493406, 82.28185689427524, 80.79536213635528, 79.64405737286826, 79.64405737286826, 79.11941216419063, 79.00282434004005, 79.1048386861718, 79.1048386861718, 79.2359999883412, 79.2359999883412, 78.90080999390828, 78.90080999390828, 78.74050173570123, 78.88623651588946, 79.2942939004165, 80.06668823541413, 80.06668823541413, 81.07225821871292, 82.17984254814348, 83.43316165776227, 83.43316165776227, 84.3367172949293, 84.93422989370106, 85.57546292652927, 85.57546292652927, 86.85792899218569, 87.60117637114567, 87.81977854142802, 87.81977854142802, 88.22783592595506, 89.17511199717858, 89.71433068387502, 89.71433068387502, 88.76705461265152, 88.16954201387978, 87.84892549746567, 87.84892549746567, 87.44086811293862, 87.03281072841158, 87.12025159652451, 87.12025159652451, 87.4262946349198, 87.13482507454333, 86.36243073954572, 86.36243073954572, 85.75034466275514, 85.42972814634103, 85.05081771785163, 84.97795032775751, 84.97795032775751, 85.16740554200221, 85.35686075624692, 85.16740554200221, 85.16740554200221, 85.13825858596456, 85.13825858596456, 84.67190728936224, 83.65176382804461, 83.65176382804461, 83.28742687757403, 83.15626557540463, 82.79192862493406, 82.79192862493406, 82.23813646021877, 82.50045906455759, 83.40401470172463, 83.40401470172463, 83.53517600389402, 83.44773513578109, 82.58789993267052, 82.58789993267052, 82.32557732833172, 82.51503254257642, 81.97581385587995, 81.97581385587995, 81.01396430663763, 80.94109691654351, 81.08683169673175]",84.96672158239875,3.581533999997191,None
reward-effort-pgACC-TUS,R88533/RE002,B_2,1,2024-09-19_13h09.27.496,2024-09-19 13:10:57,None,None,2,,,2.094049072265625,1,22,approach,shifted,heart,None,None,None,80,80,62,accept,2.4053484000032768,success,62,657,"[0.5392186866964548, 0.5975125987717472, 0.5975125987717472, 0.5683656427341011, 0.5683656427341011, 0.5537921647152779, 0.5537921647152779, 0.5829391207529242, 0.6120860767905703, 0.5683656427341011, 0.5683656427341011, 0.5829391207529242, 0.5683656427341011, 0.5683656427341011, 0.5683656427341011, 0.5537921647152779, 0.5829391207529242, 0.5392186866964548, 0.5392186866964548, 0.6266595548093935, 0.8161147690540937, 1.1367312854682021, 1.369906933769372, 1.369906933769372, 1.6030825820705414, 1.967419532541119, 2.229742136879935, 2.229742136879935, 2.419197351124635, 2.827254735651682, 3.38104690036696, 3.38104690036696, 4.0368534112139995, 4.867541658286917, 5.508774691115134, 5.508774691115134, 6.936975536959797, 9.254158541952672, 11.411033288738489, 11.411033288738489, 13.101556738921971, 16.16198712287482, 22.54517049511934, 22.54517049511934, 27.150389549067445, 30.983214268017917, 35.486418975834255, 35.486418975834255, 40.03334411770707, 43.31237667194227, 45.68785358901043, 47.74271398966449, 47.74271398966449, 49.68098656616796, 50.161911340789125, 49.316649615697386, 49.316649615697386, 48.55882875871858, 49.899588736450305, 52.041890005217304, 52.041890005217304, 53.280635636817266, 56.39935993284541, 56.39935993284541, 59.40149640472298, 59.40149640472298, 61.6895324536782, 63.642378508200494, 63.642378508200494, 65.30375500234634, 67.97070147979095, 69.36975536959797, 69.36975536959797, 71.1477196878944, 72.5467735777014, 74.01869485760254, 74.90767701675075, 74.90767701675075, 75.68007135174838, 76.94796393938599, 78.49275260938123, 78.49275260938123, 79.45460215862357, 81.58232994937174, 83.34572078964932, 83.34572078964932, 85.07996467388928, 87.35342724482568, 87.96551332161626, 87.96551332161626, 88.41729114019977, 90.39928415075971, 94.50900495206783, 97.48199446790774, 97.48199446790774, 97.48199446790774, 95.41256058923486, 95.41256058923486, 94.5527253861243, 93.89691887527725, 92.42499759537613, 92.04608716688672, 92.04608716688672, 91.49229500217145, 91.40485413405851, 92.23554238113142, 92.23554238113142, 93.45971453471257, 94.50900495206783, 94.77132755640665, 94.77132755640665, 94.94620929263252, 94.97535624867017, 95.23767885300897, 95.23767885300897, 95.76232406168661, 96.37441013847719, 97.40912707781362, 97.40912707781362, 97.93377228649126, 98.57500531931947, 99.11422400601593, 99.11422400601593, 99.12879748403475, 98.48756445120654, 97.80261098432184, 97.51114142394539, 97.51114142394539, 97.62772924809597, 98.03578663262303, 98.32725619299949, 98.32725619299949, 98.13780097875477, 97.43827403385127, 96.50557144064659, 96.50557144064659, 95.28139928706545, 94.78590103442546, 94.61101929819958, 94.61101929819958, 94.56729886414313, 94.8733419025384, 94.91706233659487, 94.91706233659487, 94.75675407838781, 94.69846016631253, 94.71303364433135, 94.71303364433135, 94.80047451244428, 95.76232406168661, 96.884481869136, 96.884481869136, 97.21967186356892, 96.85533491309835, 96.59301230875953, 96.59301230875953, 96.78246752300423, 97.00106969328658, 96.44727752857129, 96.44727752857129, 96.34526318243954, 96.388983616496, 96.34526318243954, 96.34526318243954, 96.65130622083483, 96.57843883074071, 96.03922014404425]",96.22303401195909,2.781754700001329,None
reward-effort-pgACC-TUS,R88533/RE002,B_2,1,2024-09-19_13h09.27.496,2024-09-19 13:10:57,None,None,2,,,2.094049072265625,1,23,approach,shifted,heart,None,None,None,70,60,49,accept,0.7276362999982666,success,49,706,"[0.6120860767905703, 0.6266595548093935, 0.6266595548093935, 0.6120860767905703, 0.6120860767905703, 0.6120860767905703, 0.6120860767905703, 0.6120860767905703, 0.6120860767905703, 0.5975125987717472, 0.5975125987717472, 0.6120860767905703, 0.6266595548093935, 0.7432473789599783, 0.7432473789599783, 1.1513047634870253, 1.7488173622587724, 2.9875629938587362, 3.672516460743422, 3.672516460743422, 4.88211513630574, 6.252022070075111, 9.225011585915025, 9.225011585915025, 12.052266321566707, 15.30215191976426, 19.659621847392366, 19.659621847392366, 24.410575681528698, 31.07065513613086, 37.162368947998914, 37.162368947998914, 44.303373177222234, 51.648406098709074, 55.087746911151335, 58.774836849913584, 58.774836849913584, 60.77140333849235, 61.67495897565938, 61.67495897565938, 62.30161853046877, 62.59308809084523, 62.57851461282641, 62.57851461282641, 63.13230677754168, 65.17259370017692, 70.79795621544264, 72.99855139628492, 72.99855139628492, 74.03326833562137, 76.00068786816249, 77.69121131834596, 77.69121131834596, 80.19784953758354, 83.14169209738581, 86.07096117916925, 89.86006546406325, 96.49099796262777, 96.49099796262777, 97.93377228649126, 97.93377228649126, 97.52571490196421, 97.61315577007714, 97.75889055026538, 97.75889055026538, 97.11765751743717, 95.28139928706545, 95.1210910288584, 95.48542797932897, 95.48542797932897, 94.85876842451958, 93.05165715018552, 91.44857456811496, 91.44857456811496, 90.42843110679736, 89.11681808510328, 88.24240940397388, 88.24240940397388, 87.39714767888215, 86.668473777941, 86.53731247577159, 86.53731247577159, 87.07653116246804, 87.71776419529625, 87.79063158539037, 87.13482507454333, 87.13482507454333, 86.84335551416687, 86.71219421199746, 87.06195768444923, 87.06195768444923, 87.65947028322097, 87.71776419529625, 87.45544159095745, 87.45544159095745, 87.33885376680686, 87.77605810737155, 88.28612983803036, 88.28612983803036, 88.97108330491504, 89.75805111793149, 90.705327189155, 90.705327189155, 90.71990066717383, 92.76018758980905, 94.88791538055723, 94.88791538055723, 95.96635275395013, 94.33412321584194, 93.64916974895726, 93.15367149631729, 93.15367149631729, 91.79833804056673, 90.95307631547499, 90.73447414519265, 90.73447414519265, 90.5158719749103, 89.75805111793149]",91.15178453163641,1.9588309999962803,None
reward-effort-pgACC-TUS,R88533/RE002,B_2,1,2024-09-19_13h09.27.496,2024-09-19 13:10:57,None,None,2,,,2.094049072265625,1,24,approach,shifted,heart,0.2,2.369731300001149,2,100,60,63,reject,0.7578256999986479,None,0,706,"null",None,None,None
reward-effort-pgACC-TUS,R88533/RE002,B_2,1,2024-09-19_13h09.27.496,2024-09-19 13:10:57,None,None,2,,,2.094049072265625,1,25,approach,shifted,heart,None,None,None,95,80,82,reject,0.9300177000113763,None,0,706,"null",None,None,None
reward-effort-pgACC-TUS,R88533/RE002,B_2,1,2024-09-19_13h09.27.496,2024-09-19 13:10:57,None,None,2,,,2.094049072265625,1,26,approach,shifted,heart,None,None,None,75,20,19,reject,0.7640187999932095,None,0,706,"null",None,None,None
reward-effort-pgACC-TUS,R88533/RE002,B_2,1,2024-09-19_13h09.27.496,2024-09-19 13:10:57,None,None,2,,,2.094049072265625,1,27,approach,shifted,heart,None,None,None,100,100,77,reject,0.8690925999981118,None,0,706,"null",None,None,None
reward-effort-pgACC-TUS,R88533/RE002,B_2,1,2024-09-19_13h09.27.496,2024-09-19 13:10:57,None,None,2,,,2.094049072265625,1,28,approach,shifted,heart,None,None,None,75,80,72,accept,1.2230112999968696,success,72,778,"[0.24774912631999277, 0.27689608235763896, 0.24774912631999277, 0.24774912631999277, 0.23317564830116966, 0.23317564830116966, 0.2623226043388159, 0.24774912631999277, 0.2623226043388159, 0.2623226043388159, 0.2623226043388159, 0.27689608235763896, 0.2623226043388159, 0.2623226043388159, 0.32061651641410827, 0.32061651641410827, 0.3789104284894007, 0.48092477462116245, 0.48092477462116245, 0.684953466884686, 0.859835203110563, 1.0930108514117327, 1.0930108514117327, 1.2970395436752562, 1.5010682359387797, 1.719670406221126, 1.719670406221126, 2.2005951808422886, 2.812681257632859, 3.220738642159906, 3.220738642159906, 3.759957328856361, 4.401190361684577, 5.144437740644555, 5.144437740644555, 5.902258597623357, 6.805814234790389, 7.79681074007036, 9.472760712235019, 9.472760712235019, 11.78994371722789, 12.839234134583155, 14.340302370521934, 14.340302370521934, 16.43888320523246, 18.82893360031945, 20.9420879130488, 20.9420879130488, 21.758202682102894, 21.8893639842723, 21.78734963814054, 21.78734963814054, 21.758202682102894, 22.195407022667588, 23.273844396060497, 23.273844396060497, 24.614604373792222, 26.39256869208864, 28.389135180667406, 28.389135180667406, 31.158096004243795, 34.46627551451664, 36.94376677771657, 36.94376677771657, 41.73844104590937, 43.82244840260107, 44.74057751778693, 44.74057751778693, 45.06119403420104, 44.521975347504586, 44.60941621561752, 44.60941621561752, 45.4838248967469, 47.451244429288025, 49.81214786833737, 52.15847782936789, 52.15847782936789, 53.63039910926902, 56.370212976807764, 56.370212976807764, 58.206471207179476, 58.206471207179476, 60.71310942641704, 62.3890593985817, 63.86098067848284, 63.86098067848284, 66.83397019432276, 69.93812101233208, 72.05127532506143, 72.05127532506143, 73.33374139071786, 73.0422718303414, 72.12414271515554, 70.94369099563087, 70.94369099563087, 71.07485229780028, 71.42461577025203, 71.45376272628968, 71.86182011081672, 71.86182011081672, 72.70708183590845, 75.33030787929663, 76.61277394495306, 76.61277394495306, 77.26858045580009, 78.02640131277889, 79.41088172456709, 81.45116864720232, 81.45116864720232, 83.24370644351757, 84.99252380577634, 86.65390029992217, 86.65390029992217, 87.49916202501392, 87.19311898661863, 86.24584291539513, 86.24584291539513, 85.40058119030338, 85.6629037946422, 86.88707594822334, 87.5574559370892, 87.5574559370892, 88.14039505784214, 88.7524811346327, 88.49015853029388, 88.49015853029388, 88.34442375010565, 88.34442375010565, 88.22783592595506, 88.08210114576683, 88.08210114576683, 87.9946602776539, 87.90721940954096, 87.95093984359742, 87.45544159095745, 87.45544159095745, 86.62475334388454, 86.18754900331983, 86.18754900331983, 86.18754900331983, 85.98352031105631, 86.2312694373763, 87.1056781185057, 87.1056781185057, 87.36800072284451, 87.36800072284451, 86.18754900331983, 86.18754900331983, 85.69205075067985, 86.2895633494516, 87.13482507454333, 87.13482507454333, 88.15496853586096, 90.705327189155, 93.7366106170702, 96.57843883074071, 96.57843883074071, 97.94834576451008, 98.06493358866067, 97.74431707224656, 97.74431707224656, 96.98649621526776, 96.85533491309835, 97.64230272611479, 97.64230272611479, 98.73531357752653, 99.71173660478767, 100.04692659922061, 100.04692659922061, 99.25995878620417, 98.29810923696184, 97.61315577007714, 97.61315577007714, 97.0156431713054, 96.59301230875953, 96.3306897044207, 96.3306897044207, 96.388983616496, 96.53471839668424, 97.23424534158774, 97.23424534158774, 97.35083316573834, 97.77346402828421, 98.93934226979006, 98.93934226979006, 99.88661834101356, 100.62986571997352, 100.33839615959708, 100.42583702771, 100.42583702771, 101.02334962648176, 101.65000918129114, 101.40226005497115, 101.40226005497115, 99.75545703884414, 98.9101953137524, 98.22524184686772, 98.22524184686772, 97.59858229205832, 94.04265365546549, 90.23897589255266, 90.23897589255266, 87.68861723925862, 86.668473777941, 86.88707594822334, 86.88707594822334, 87.41172115690098, 87.98008679963507, 88.03838071171037, 87.14939855256216, 87.14939855256216, 87.32428028878803, 88.14039505784214, 88.54845244236917, 88.54845244236917, 90.69075371113617, 92.83305497990317, 93.48886149075021, 93.48886149075021, 94.82962146848195, 97.75889055026538, 99.77003051686296, 99.77003051686296, 100.97962919242529, 101.59171526921587, 103.26766524138051, 103.26766524138051, 104.59385174109342, 105.86174432873104, 106.37181605938983, 106.38638953740866, 106.38638953740866, 104.55013130703693, 103.64657566986992, 103.7631634940205, 103.7631634940205, 104.2003678345852, 104.49183739496166, 103.1947978512864, 103.1947978512864, 102.14550743393114, 101.88318482959231, 102.45155047232642, 102.45155047232642, 102.34953612619466, 102.16008091194995, 102.26209525808171, 102.26209525808171, 102.0580665658182, 100.9942026704441, 100.67358615402999, 100.67358615402999, 99.78460399488179, 98.80818096762064, 98.66244618743241, 99.5368548685618, 99.5368548685618, 100.58614528591706, 100.4841309397853, 99.6680161707312, 99.6680161707312, 98.73531357752653, 98.54585836328182, 98.4729909731877, 98.4729909731877, 98.48756445120654, 98.50213792922536, 98.10865402271713, 97.21967186356892, 97.21967186356892, 95.8206179737619, 94.96078277065135, 94.80047451244428, 94.80047451244428]",99.87682305250908,4.56713180000952,None
reward-effort-pgACC-TUS,R88533/RE002,B_2,1,2024-09-19_13h09.27.496,2024-09-19 13:10:57,None,None,2,,,2.094049072265625,1,29,approach,shifted,heart,None,None,None,55,20,19,reject,0.7722160000121221,None,0,778,"null",None,None,None
reward-effort-pgACC-TUS,R88533/RE002,B_2,1,2024-09-19_13h09.27.496,2024-09-19 13:10:57,None,None,2,,,2.094049072265625,1,30,approach,shifted,heart,None,None,None,85,40,44,reject,0.8294232000043849,None,0,778,"null",None,None,None
reward-effort-pgACC-TUS,R88533/RE002,B_2,1,2024-09-19_13h09.27.496,2024-09-19 13:10:57,None,None,2,,,2.094049072265625,1,31,approach,shifted,heart,0.2,4.162920800008578,5,100,40,42,reject,2.1094143000082113,None,0,778,"null",None,None,None
reward-effort-pgACC-TUS,R88533/RE002,B_2,1,2024-09-19_13h09.27.496,2024-09-19 13:10:57,None,None,2,,,2.094049072265625,1,32,approach,shifted,heart,None,None,None,70,100,101,accept,1.433714200000395,success,101,879,"[0.11658782415058483, 0.13116130216940794, 0.13116130216940794, 0.13116130216940794, 0.16030825820705413, 0.16030825820705413, 0.13116130216940794, 0.13116130216940794, 0.13116130216940794, 0.11658782415058483, 0.13116130216940794, 0.13116130216940794, 0.13116130216940794, 0.16030825820705413, 0.14573478018823105, 0.16030825820705413, 0.16030825820705413, 0.16030825820705413, 0.17488173622587724, 0.24774912631999277, 0.24774912631999277, 0.33518999443293135, 0.5683656427341011, 1.0347169393364404, 1.0347169393364404, 1.3116130216940793, 2.1277277907481733, 3.1915916861222597, 4.007706455176353, 4.007706455176353, 4.911262092343386, 5.639935993284541, 6.805814234790389, 6.805814234790389, 8.54005811903034, 11.658782415058482, 12.984968914771386, 16.10369321079953, 16.10369321079953, 20.00938531984412, 24.308561335396934, 28.4474290927427, 28.4474290927427, 34.52456942659193, 39.9313297715753, 44.24507926514694, 44.24507926514694, 46.28536618778218, 51.38608349437026, 54.97115908700074, 57.31748904803127, 59.09545336632769, 60.3633459539653, 60.3633459539653, 63.35090894782404, 63.35090894782404, 66.32389846366394, 70.24416405072736, 72.03670184704261, 72.03670184704261, 74.63078093439312, 77.31230088985657, 78.30329739513654, 79.20685303230357, 79.20685303230357, 81.52403603729644, 83.18541253144227, 84.51159903115519, 84.51159903115519, 86.71219421199746, 91.31741326594558, 91.31741326594558, 92.96421628207257, 93.35770018858081, 93.35770018858081, 93.50343496876903, 93.47428801273139, 93.47428801273139, 93.59087583688196, 93.8677719192396, 93.78033105112668, 93.78033105112668, 93.59087583688196, 92.65817324367728, 91.82748499660438, 90.99679674953146, 90.99679674953146, 89.21883243123504, 88.15496853586096, 86.7996350801104, 86.7996350801104, 85.76491814077396, 85.50259553643514, 85.89607944294337, 85.89607944294337, 86.24584291539513, 86.33328378350807, 86.20212248133866, 86.20212248133866, 85.61918336058574, 85.37143423426573, 86.49359204171512, 88.14039505784214, 88.14039505784214, 91.41942761207733, 92.68732019971495, 92.39585063933848, 92.39585063933848, 92.4687180294326, 93.19739193037375, 93.6054493149008, 93.6054493149008, 93.6054493149008, 93.6054493149008, 93.5471554028255, 93.5471554028255, 93.15367149631729, 93.59087583688196, 94.53815190810548, 94.71303364433135, 94.71303364433135, 93.72203713905138, 92.599879331602, 92.55615889754553, 92.55615889754553, 92.26468933716907, 91.75461760651025, 90.95307631547499, 90.37013719472206, 90.37013719472206, 89.43743460151738, 88.40271766218095]",90.93850283745621,2.200048099999549,None
reward-effort-pgACC-TUS,R88533/RE002,B_2,1,2024-09-19_13h09.27.496,2024-09-19 13:10:57,None,None,2,,,2.094049072265625,1,33,approach,shifted,heart,None,None,None,100,80,72,reject,0.7994638999953168,None,0,879,"null",None,None,None
reward-effort-pgACC-TUS,R88533/RE002,B_2,1,2024-09-19_13h09.27.496,2024-09-19 13:10:57,None,None,2,,,2.094049072265625,1,34,approach,shifted,heart,None,None,None,90,20,22,reject,0.7488650000013877,None,0,879,"null",None,None,None
reward-effort-pgACC-TUS,R88533/RE002,B_2,1,2024-09-19_13h09.27.496,2024-09-19 13:10:57,None,None,2,,,2.094049072265625,1,35,approach,shifted,heart,None,None,None,65,40,37,reject,0.9119249999930616,None,0,879,"null",None,None,None
reward-effort-pgACC-TUS,R88533/RE002,B_2,1,2024-09-19_13h09.27.496,2024-09-19 13:10:57,None,None,2,,,2.094049072265625,1,36,approach,shifted,heart,None,None,None,95,40,37,reject,0.3903420999995433,None,0,879,"null",None,None,None
reward-effort-pgACC-TUS,R88533/RE002,B_2,1,2024-09-19_13h09.27.496,2024-09-19 13:10:57,None,None,2,,,2.094049072265625,1,37,approach,shifted,heart,0.3,4.6828999999997905,10,60,80,66,accept,0.7162659000023268,success,66,945,"[0.20402869226352344, 0.21860217028234655, 0.21860217028234655, 0.18945521424470035, 0.18945521424470035, 0.18945521424470035, 0.21860217028234655, 0.21860217028234655, 0.21860217028234655, 0.18945521424470035, 0.21860217028234655, 0.23317564830116966, 0.23317564830116966, 0.2623226043388159, 0.33518999443293135, 0.5975125987717472, 0.8889821591482093, 0.8889821591482093, 1.0492904173552635, 1.3261864997129025, 1.7342438842399492, 1.7342438842399492, 2.550358653294043, 3.5559286365928373, 4.488631229797516, 4.488631229797516, 5.552495125171602, 7.257592053373905, 9.516481146291486, 9.516481146291486, 12.270868491849054, 14.36944932655958, 18.012818831265356, 24.483443071622816, 24.483443071622816, 29.11780908160856, 34.5682898606484, 40.96604671091175, 44.55112230354223, 44.55112230354223, 49.068900489377384, 53.397223460967844, 56.96772557557951, 59.7366863991559, 59.7366863991559, 62.170457228299355, 64.00671545867107, 64.00671545867107, 64.64794849149928, 64.60422805744281, 64.45849327725459, 63.55493764008755, 63.55493764008755, 63.190600689616986, 63.93384806857696, 65.71181238687338, 65.71181238687338, 67.79581974356508, 67.82496669960273, 67.73752583148979, 67.72295235347097, 67.72295235347097, 67.12543975469922, 68.67022842469447, 70.94369099563087, 70.94369099563087, 72.99855139628492, 75.85495308797425, 77.37059480193186, 77.89524001060948, 78.41988521928712, 79.14855912022828, 79.14855912022828, 80.99939082861881, 80.99939082861881, 85.96894683303748, 89.75805111793149, 94.1155210455596, 94.1155210455596, 96.31611622640189, 95.48542797932897, 94.21753539169137, 94.21753539169137, 93.88234539725843, 93.09537758424199, 93.0370836721667, 93.0370836721667, 93.59087583688196, 93.91149235329608, 94.23210886971019, 94.23210886971019, 94.59644582018076, 94.5527253861243, 94.31954973782312, 93.95521278735255, 93.95521278735255, 92.77476106782788, 90.16610850245854, 89.6997572058562, 89.6997572058562, 90.16610850245854, 90.22440241453383, 89.3208467773668, 88.7524811346327, 88.7524811346327, 88.35899722812448, 88.46101157425625, 88.28612983803036, 88.28612983803036, 86.93079638227982, 86.75591464605394, 86.98909029435511, 86.98909029435511, 87.14939855256216, 87.1056781185057, 86.74134116803512, 86.74134116803512, 85.73577118473632, 84.67190728936224, 84.97795032775751, 85.61918336058574, 85.61918336058574, 85.44430162435985, 84.30757033889165, 83.59346991596932, 83.59346991596932, 83.59346991596932, 83.53517600389402, 82.47131210851994, 81.08683169673175, 81.08683169673175]",88.13114205592541,2.189190699995379,None
reward-effort-pgACC-TUS,R88533/RE002,B_2,1,2024-09-19_13h09.27.496,2024-09-19 13:10:57,None,None,2,,,2.094049072265625,1,38,approach,shifted,heart,None,None,None,85,100,84,accept,0.6495309999882011,success,84,1029,"[0.2623226043388159, 0.24774912631999277, 0.24774912631999277, 0.24774912631999277, 0.2623226043388159, 0.2623226043388159, 0.2623226043388159, 0.23317564830116966, 0.23317564830116966, 0.2623226043388159, 0.21860217028234655, 0.21860217028234655, 0.24774912631999277, 0.23317564830116966, 0.23317564830116966, 0.24774912631999277, 0.24774912631999277, 0.2623226043388159, 0.2623226043388159, 0.33518999443293135, 0.33518999443293135, 0.5100717306588086, 0.7286739009411551, 1.0492904173552635, 1.0492904173552635, 1.719670406221126, 2.681519955463451, 3.220738642159906, 3.745383850837537, 3.745383850837537, 4.7509538341363315, 5.596215559228072, 6.630932498564512, 6.630932498564512, 8.102853778465647, 10.930108514117327, 13.349305865241961, 17.51732057862537, 17.51732057862537, 23.929650906907536, 27.981077796140358, 32.57172337206964, 32.57172337206964, 37.14779546998009, 44.18678535307165, 47.2472157370245, 52.63940260398905, 53.90729519162666, 54.19876475200313, 54.19876475200313, 53.57210519719373, 53.36807650493021, 53.36807650493021, 53.309782592854916, 54.09675040587136, 54.09675040587136, 56.50137427897717, 58.33763250934888, 60.55280116820999, 60.55280116820999, 62.30161853046877, 64.41477284319812, 68.59736103460034, 71.19144012195086, 71.19144012195086, 74.09156224769666, 77.26858045580009, 79.06111825211534, 82.23813646021877, 82.23813646021877, 83.36029426766815, 81.50946255927762, 77.57462349419538, 77.57462349419538, 71.89096706685437, 69.3260349355415, 69.09285928724034, 69.09285928724034, 69.50091667176737, 70.87082360553674, 72.9256840061908, 76.14642264835072, 76.14642264835072, 77.70578479636478, 79.30886737843534, 82.55875297663287, 82.55875297663287, 84.56989294323047, 86.50816551973395, 87.96551332161626, 88.72333417859505, 88.72333417859505, 90.6470332770797, 92.94964280405375, 94.58187234216194, 94.58187234216194, 95.3105462431031, 95.60201580347956, 97.14680447347482, 97.68602316017126, 97.87547837441596, 98.22524184686772, 98.22524184686772, 98.54585836328182, 98.54585836328182, 98.80818096762064, 98.70616662148888, 98.70616662148888, 98.74988705554534, 98.82275444563946, 98.54585836328182, 98.0212131546042, 98.0212131546042, 97.97749272054772, 98.12322750073595, 98.31268271498065, 98.31268271498065, 98.48756445120654, 98.48756445120654, 98.4729909731877, 98.4729909731877, 99.78460399488179, 100.97962919242529, 102.17465438996878, 102.17465438996878, 101.2419517967641, 101.08164353855705, 102.36410960421347, 103.69029610392637, 103.69029610392637, 104.37524957081106, 104.08378001043461, 103.64657566986992, 103.64657566986992, 103.00534263704168, 103.03448959307934, 103.66114914788874, 103.61742871383225, 103.61742871383225, 102.97619568100404, 102.81588742279699, 102.568138296477, 102.568138296477, 101.35853962091468, 100.26552876950294, 99.5368548685618, 99.14337096205358, 99.14337096205358, 98.63329923139477, 98.29810923696184, 98.48756445120654, 98.48756445120654, 99.07050357195945, 99.7263100828065, 99.68258964875002, 99.68258964875002, 99.34739965431709, 99.75545703884414, 100.39669007167235, 100.39669007167235, 100.92133528035]",100.22874808688398,2.686873900005594,None
reward-effort-pgACC-TUS,R88533/RE002,B_2,1,2024-09-19_13h09.27.496,2024-09-19 13:10:57,None,None,2,,,2.094049072265625,1,39,approach,shifted,heart,None,None,None,85,60,55,reject,1.1608800999965752,None,0,1029,"null",None,None,None
reward-effort-pgACC-TUS,R88533/RE002,B_2,1,2024-09-19_13h09.27.496,2024-09-19 13:10:57,None,None,2,,,2.094049072265625,1,40,approach,shifted,heart,None,None,None,75,60,56,accept,1.4467900000017835,success,56,1085,"[0.11658782415058483, 0.11658782415058483, 0.11658782415058483, 0.11658782415058483, 0.13116130216940794, 0.13116130216940794, 0.10201434613176172, 0.11658782415058483, 0.11658782415058483, 0.11658782415058483, 0.11658782415058483, 0.11658782415058483, 0.13116130216940794, 0.13116130216940794, 0.17488173622587724, 0.18945521424470035, 0.42263086254587, 0.42263086254587, 0.699526944903509, 1.0638638953740867, 1.2678925876376101, 1.2678925876376101, 1.8216847523528878, 3.104150818009321, 4.0368534112139995, 4.0368534112139995, 5.042423394512794, 7.636502481863307, 12.139707189679646, 17.910804485133593, 17.910804485133593, 25.066382192375734, 29.99221776273795, 36.25881331083188, 36.25881331083188, 43.2103623258105, 47.46581790730685, 52.6685495600267, 54.79627735077487, 54.79627735077487, 57.23004817991833, 59.18289423444062, 59.18289423444062, 60.55280116820999, 61.51465071745233, 62.66595548093935, 62.66595548093935, 64.85197718376281, 66.90683758441686, 68.1893036500733, 68.1893036500733, 69.10743276525916, 70.6522214352544, 72.16786314921201, 72.56134705572023, 72.56134705572023, 73.12971269845433, 74.84938310467545, 76.5107595988213, 76.5107595988213, 77.57462349419538, 79.51289607069886, 84.3367172949293, 84.3367172949293, 88.47558505227506, 94.45071103999253, 94.45071103999253, 94.34869669386077, 94.34869669386077, 95.23767885300897, 97.04479012734305, 98.0212131546042, 98.0212131546042, 98.283535758943, 98.531284885263, 99.21623835214768, 99.21623835214768, 99.82832442893826, 99.97405920912648, 99.2891057422418, 99.2891057422418, 98.35640314903713, 97.64230272611479, 97.19052490753127, 97.19052490753127, 96.22867535828895, 95.2522523310278, 94.37784364989842, 94.37784364989842, 93.45971453471257, 93.06623062820434, 92.61445280962083, 91.34656022198321, 91.34656022198321, 89.93293285415737, 89.48115503557386, 89.51030199161151, 89.51030199161151, 89.53944894764915, 90.82191501330557, 91.8420584746232, 91.8420584746232, 92.20639542509377, 92.2209689031126, 93.1682449743361, 93.1682449743361, 94.23210886971019, 94.3049762598043, 94.29040278178547, 94.39241712791724, 94.39241712791724, 94.742180600369, 94.94620929263252, 94.97535624867017, 94.97535624867017, 95.09194407282075, 95.03365016074545, 94.58187234216194, 94.39241712791724, 94.39241712791724, 94.1883884356537, 93.80947800716432, 93.21196540839257, 93.21196540839257, 92.65817324367728, 92.1626749910373, 91.82748499660438]",94.43706286216535,2.110507499994128,None
reward-effort-pgACC-TUS,R88533/RE002,B_2,1,2024-09-19_13h09.27.496,2024-09-19 13:10:57,None,None,2,,,2.094049072265625,1,41,approach,shifted,heart,None,None,None,85,100,93,accept,0.8904303000017535,success,93,1178,"[0.3497634724517545, 0.33518999443293135, 0.3497634724517545, 0.3497634724517545, 0.36433695047057757, 0.3497634724517545, 0.3497634724517545, 0.3789104284894007, 0.3789104284894007, 0.33518999443293135, 0.4080573845270469, 0.3497634724517545, 0.3497634724517545, 0.3497634724517545, 0.36433695047057757, 0.36433695047057757, 0.36433695047057757, 0.3789104284894007, 0.4372043405646931, 0.6120860767905703, 0.6120860767905703, 1.282466065656433, 2.156874746785819, 3.3956203783857832, 3.3956203783857832, 4.474057751778693, 5.843964685548064, 7.592782047806837, 7.592782047806837, 10.580345041665574, 12.358309359961991, 14.209141068352526, 17.10926319409832, 17.10926319409832, 21.379292253613492, 26.844346510672157, 29.438425598022672, 29.438425598022672, 34.7577450748931, 38.70715761799416, 44.05562405090224, 44.05562405090224, 46.16877836363159, 49.258355703622094, 52.7997108621961, 54.27163214209724, 56.370212976807764, 58.847704240007694, 58.847704240007694, 62.11216331622407, 62.11216331622407, 65.04143239800752, 69.60293101789914, 72.2261570612873, 72.2261570612873, 74.48504615420488, 76.97711089542364, 78.39073826324947, 78.39073826324947, 81.6843442955035, 83.87036599832696, 85.50259553643514, 85.50259553643514, 87.28055985473156, 88.5047320083127, 90.92392935943734, 92.55615889754553, 92.55615889754553, 93.72203713905138, 94.61101929819958, 95.39798711121603, 95.39798711121603, 97.14680447347482, 97.03021664932422, 96.68045317687248, 96.68045317687248, 96.65130622083483, 96.65130622083483, 96.70960013291011, 96.70960013291011, 96.70960013291011, 97.46742098988892, 97.72974359422774, 97.84633141837831, 97.84633141837831, 97.91919880847243, 97.9629192425289, 98.19609489083008, 98.19609489083008, 98.531284885263, 99.17251791809122, 100.93590875836883, 100.93590875836883, 102.52441786242052, 102.568138296477, 102.55356481845818, 102.55356481845818, 102.84503437883463, 102.58271177449583, 101.08164353855705, 101.3002457088394, 101.3002457088394, 102.39325656025113, 102.33496264817583, 101.69372961534762, 101.69372961534762, 101.5625683131782, 101.13993745063235, 100.74645354412412, 100.74645354412412, 100.68815963204882, 100.6152922419547, 100.10522051129588, 100.10522051129588, 99.63886921469356, 99.39112008837357, 99.33282617629827, 99.36197313233592, 99.36197313233592, 99.55142834658062, 99.71173660478767, 100.07607355525825, 100.07607355525825, 100.2218083354465, 99.56600182459945, 99.11422400601593, 99.11422400601593, 99.09965052799711, 99.23081183016652, 99.42026704441122, 99.42026704441122, 99.74088356082532, 100.2218083354465, 100.5424248518606, 100.5424248518606]",99.67588122236046,2.250664399995003,None
reward-effort-pgACC-TUS,R88533/RE002,B_2,1,2024-09-19_13h09.27.496,2024-09-19 13:10:57,None,None,2,,,2.094049072265625,1,42,approach,shifted,heart,None,None,None,50,80,88,accept,0.6849676999991061,success,88,1266,"[0.5829391207529242, 0.5829391207529242, 0.6120860767905703, 0.5975125987717472, 0.5975125987717472, 0.5975125987717472, 0.5829391207529242, 0.5829391207529242, 0.5829391207529242, 0.6120860767905703, 0.5829391207529242, 0.5829391207529242, 0.5829391207529242, 0.6266595548093935, 0.6120860767905703, 0.6120860767905703, 0.6266595548093935, 0.7286739009411551, 1.2095986755623176, 1.2095986755623176, 2.11315431272935, 3.308179510272845, 4.8529681802680935, 7.14100422922332, 7.14100422922332, 9.647642448460894, 11.250725030531436, 12.154280667698467, 12.154280667698467, 12.897528046658447, 14.194567590333703, 16.51175059532658, 19.90737097371236, 19.90737097371236, 25.34327827473338, 32.673737718201394, 37.48298546441302, 37.48298546441302, 43.50183188618696, 47.26178921504333, 50.45338090116559, 50.45338090116559, 52.4208004337067, 53.64497258728784, 53.64497258728784, 53.863574757570184, 53.863574757570184, 55.29177560341485, 57.31748904803127, 57.31748904803127, 60.15931726170177, 61.995575492073485, 64.26903806300989, 67.9998484358286, 67.9998484358286, 70.37532535289677, 71.13314620987556, 71.13314620987556, 71.16229316591321, 72.37189184147553, 72.37189184147553, 74.73279528052488, 74.73279528052488, 77.22486002174362, 78.36159130721182, 78.69678130164476, 78.69678130164476, 77.73493175240243, 76.68564133504717, 76.61277394495306, 76.61277394495306, 77.22486002174362, 77.54547653815773, 77.18113958768716, 76.90424350532952, 76.90424350532952, 76.72936176910365, 76.24843699448249, 75.79665917589897, 75.79665917589897, 74.92225049476957, 74.23729702788489, 73.8729600774143, 73.8729600774143, 73.40660878081198, 73.05684530836022, 72.6050674897767, 72.6050674897767, 72.2844509733626, 72.15328967119319, 71.93468750091084, 71.93468750091084, 72.02212836902378, 72.16786314921201, 72.13871619317437, 72.13871619317437, 72.38646531949435, 74.28101746194136, 75.22829353316486, 75.22829353316486, 75.5634835275978, 75.62177743967308, 75.79665917589897, 75.79665917589897, 75.11170570901427, 73.84381312137667, 72.77994922600259, 72.80909618204022, 72.80909618204022, 72.76537574798375, 72.85281661609669, 73.81466616533902, 73.81466616533902, 74.01869485760254, 73.75637225326372, 72.9256840061908, 72.9256840061908, 72.26987749534376, 71.8472466327979]",74.3205740451353,1.9873778000037419,None
reward-effort-pgACC-TUS,R88533/RE002,B_2,1,2024-09-19_13h09.27.496,2024-09-19 13:10:57,None,None,2,,,2.094049072265625,1,43,approach,shifted,heart,None,None,None,75,80,79,accept,0.8349866999924416,success,79,1345,"[0.5829391207529242, 0.5975125987717472, 0.5975125987717472, 0.5683656427341011, 0.5683656427341011, 0.5829391207529242, 0.5829391207529242, 0.5829391207529242, 0.5683656427341011, 0.5683656427341011, 0.6120860767905703, 0.6558065108470397, 0.859835203110563, 1.3407599777317254, 1.3407599777317254, 1.7925377963152418, 2.972989515839913, 3.7016634167810682, 3.7016634167810682, 5.421333823002195, 7.359606399505668, 12.008545887510238, 12.008545887510238, 14.864947579199567, 19.688768803430012, 25.474439576902785, 29.146956037646206, 29.146956037646206, 34.305967256309586, 42.94803972147169, 47.713567033626845, 47.713567033626845, 53.45551737304315, 56.54509471303364, 56.54509471303364, 57.375782960106555, 57.375782960106555, 59.416069882741795, 61.121166810944096, 61.121166810944096, 62.27247157443112, 63.380055903861674, 65.9158410791369, 70.8416766494991, 70.8416766494991, 73.31916791269903, 74.9368239727884, 75.62177743967308, 75.62177743967308, 75.6946448297672, 75.72379178580485, 76.08812873627542, 76.08812873627542, 76.8896700273107, 77.89524001060948, 78.56561999947536, 78.56561999947536, 79.36716129051062, 82.03410776795525, 83.44773513578109, 84.04524773455285, 84.04524773455285, 83.89951295436461, 83.73920469615756, 84.75934815747517, 84.75934815747517, 85.24027293209633, 85.29856684417163, 85.69205075067985, 85.69205075067985, 86.1001081352069, 86.4790185636963, 86.49359204171512, 86.49359204171512, 86.68304725595982, 86.74134116803512, 86.91622290426099, 86.90164942624217, 86.90164942624217, 87.20769246463746, 88.14039505784214, 88.81077504670799, 89.4520080795362, 91.04051718358794, 91.04051718358794, 91.87120543066084, 91.87120543066084, 91.91492586471732, 91.5214419582091, 91.5943093483032, 92.2209689031126, 92.2209689031126, 93.51800844678786, 93.7366106170702, 93.29940627650551, 93.29940627650551, 92.7893345458467, 93.05165715018552, 93.64916974895726, 93.64916974895726, 93.32855323254316, 92.43957107339494, 92.39585063933848, 92.39585063933848, 92.599879331602, 92.68732019971495, 92.39585063933848, 92.27926281518789, 92.27926281518789, 92.26468933716907, 91.56516239226556, 91.43400109009615, 91.43400109009615, 91.50686848019026, 91.33198674396439, 90.73447414519265, 90.73447414519265, 90.8364884913244, 91.36113370000204, 91.79833804056673, 91.92949934273614, 91.92949934273614, 91.91492586471732, 91.87120543066084, 91.55058891424673, 91.55058891424673, 91.31741326594558, 91.30283978792674, 91.2736928318891, 91.2736928318891, 90.98222327151264, 90.47215154085383, 90.45757806283501, 90.92392935943734, 90.92392935943734, 90.86563544736205, 90.79276805726793, 91.09881109566322, 91.09881109566322, 91.75461760651025, 91.8420584746232, 91.36113370000204, 90.55959240896676, 90.55959240896676]",91.7136730730288,2.3939234999998007,None
reward-effort-pgACC-TUS,R88533/RE002,B_2,1,2024-09-19_13h09.27.496,2024-09-19 13:10:57,None,None,2,,,2.094049072265625,1,44,approach,shifted,heart,None,None,None,90,100,88,reject,1.2714389999891864,None,0,1345,"null",None,None,None
reward-effort-pgACC-TUS,R88533/RE002,B_2,1,2024-09-19_13h09.27.496,2024-09-19 13:10:57,None,None,2,,,2.094049072265625,1,45,approach,shifted,heart,None,None,None,90,100,98,reject,0.710446500001126,None,0,1345,"null",None,None,None
reward-effort-pgACC-TUS,R88533/RE002,B_2,1,2024-09-19_13h09.27.496,2024-09-19 13:10:57,None,None,2,,,2.094049072265625,1,46,approach,shifted,heart,0.3,4.574813400002313,1,75,40,44,reject,1.3111108000011882,None,0,1345,"null",None,None,None
reward-effort-pgACC-TUS,R88533/RE002,B_2,1,2024-09-19_13h09.27.496,2024-09-19 13:10:57,None,None,2,,,2.094049072265625,1,47,approach,shifted,heart,None,None,None,60,100,98,accept,0.6984448000002885,success,98,1443,"[-0.11658782415058483, -0.10201434613176172, -0.08744086811293862, -0.08744086811293862, -0.08744086811293862, -0.10201434613176172, -0.10201434613176172, -0.10201434613176172, -0.10201434613176172, -0.10201434613176172, -0.11658782415058483, -0.08744086811293862, -0.08744086811293862, -0.08744086811293862, -0.11658782415058483, -0.13116130216940794, -0.07286739009411553, -0.07286739009411553, -0.07286739009411553, -0.08744086811293862, -0.058293912075292414, -0.058293912075292414, -0.058293912075292414, -0.04372043405646931, -0.07286739009411553, -0.07286739009411553, -0.04372043405646931, 0.49549825263998554, 0.7432473789599783, 0.7432473789599783, 1.1075843294305558, 1.8216847523528878, 3.104150818009321, 4.517778185835162, 4.517778185835162, 7.053563361110382, 11.119563728362028, 14.45689019467252, 14.45689019467252, 24.439722637566344, 34.13108552008371, 45.134061424295155, 45.134061424295155, 51.80871435691613, 54.125897361909004, 56.92400514152304, 56.92400514152304, 58.51251424557476, 58.51251424557476, 59.60552509698649, 59.60552509698649, 58.83313076198887, 58.774836849913584, 60.91713811868057, 62.913704607259334, 62.913704607259334, 64.79368327168751, 67.34404192498155, 69.60293101789914, 69.60293101789914, 72.40103879751318, 74.52876658826135, 76.10270221429425, 76.10270221429425, 76.62734742297188, 76.91881698334834, 78.36159130721182, 79.95010041126355, 81.91751994380466, 82.20898950418113, 82.20898950418113, 82.29643037229405, 82.29643037229405, 82.48588558653877, 81.8737995097482, 81.34915430107057, 81.34915430107057, 82.0049608119176, 82.95223688314111, 83.14169209738581, 83.14169209738581, 84.24927642681637, 85.26941988813398, 85.44430162435985, 85.44430162435985, 84.68648076738106, 83.21455948747992, 82.04868124597408, 82.04868124597408, 81.65519733946584, 81.62605038342821, 81.69891777352231, 82.58789993267052, 82.58789993267052, 82.96681036115993, 83.02510427323521, 83.65176382804461, 83.65176382804461, 84.29299686087283, 84.07439469059048, 83.1999860094611, 82.98138383917876, 82.98138383917876, 82.15069559210583, 81.04311126267528, 80.73706822428, 80.73706822428, 80.16870258154589, 79.1631325982471, 78.41988521928712, 78.41988521928712, 77.54547653815773, 76.77308220316012, 75.41774874740956, 73.52319660496256, 73.52319660496256, 72.19701010524966, 71.8472466327979, 71.55577707242144, 71.55577707242144, 71.2788809900638, 71.1477196878944, 70.91454403959322, 70.91454403959322, 70.66679491327324, 70.37532535289677, 70.44819274299088, 70.44819274299088, 70.8999705615744, 71.36632185817675, 72.64878792383317, 74.19357659382842, 74.19357659382842, 76.33587786259541, 78.24500348306125, 79.33801433447297, 79.33801433447297, 81.01396430663763, 84.89050945964458, 86.52273899775277, 86.52273899775277, 86.90164942624217, 87.96551332161626, 89.16053851915974, 89.48115503557386, 89.48115503557386, 88.35899722812448, 87.30970681076921, 86.85792899218569, 86.85792899218569, 86.74134116803512, 86.71219421199746, 86.33328378350807, 86.33328378350807, 85.96894683303748, 85.59003640454809, 84.99252380577634, 84.99252380577634, 84.13268860266577, 83.59346991596932, 83.2582799215364, 83.0105307952164, 83.0105307952164, 83.12711861936698, 83.40401470172463, 83.43316165776227, 83.43316165776227, 83.27285339955522, 82.86479601502816, 82.45673863050112, 82.45673863050112, 82.61704688870817, 83.41858817974345, 84.2055559927599, 84.2055559927599, 84.278423382854, 83.63719035002579, 82.8210755809717, 82.8210755809717, 81.9320934218235, 79.8626595431506, 78.9153834719271, 78.9153834719271, 78.49275260938123, 78.02640131277889, 77.4580356700448, 77.4580356700448, 76.77308220316012, 76.48161264278365, 76.24843699448249, 75.76751221986132, 75.76751221986132, 75.72379178580485, 75.82580613193662, 76.20471656042601, 76.20471656042601, 76.42331873070836, 76.58362698891541, 76.72936176910365, 76.72936176910365, 76.74393524712247, 76.71478829108482, 77.25400697778127, 77.25400697778127, 77.69121131834596, 79.32344085645416, 82.22356298219995, 83.41858817974345, 83.41858817974345, 83.49145556983756, 84.30757033889165, 84.59903989926812, 84.59903989926812, 83.65176382804461, 83.06882470729168, 83.85579252030814, 83.85579252030814, 84.526172509174, 83.72463121813874, 83.37486774568697, 83.37486774568697, 83.69548426210109, 83.7683516521952, 83.09797166332935, 83.09797166332935, 82.54417949861406, 82.36929776238819, 82.35472428436937, 82.35472428436937, 82.17984254814348, 82.28185689427524, 82.29643037229405, 82.29643037229405, 82.03410776795525, 81.27628691097645, 81.14512560880705, 81.26171343295763, 81.26171343295763, 81.08683169673175, 80.24156997164, 80.03754127937648, 80.03754127937648, 80.32901083975294, 80.16870258154589, 79.33801433447297, 79.06111825211534, 79.06111825211534, 78.94453042796475, 78.66763434560711, 78.34701782919299, 78.34701782919299, 78.2158565270236, 78.44903217532476, 78.50732608740006, 78.50732608740006, 78.53647304343771, 79.36716129051062, 80.73706822428, 80.73706822428, 81.85922603172938, 81.88837298776703, 82.0049608119176, 82.07782820201172, 82.07782820201172, 81.83007907569173, 81.84465255371055]",81.48595694956985,4.43986829998903,None
reward-effort-pgACC-TUS,R88533/RE002,B_2,1,2024-09-19_13h09.27.496,2024-09-19 13:10:57,None,None,2,,,2.094049072265625,1,48,approach,shifted,heart,None,None,None,75,60,53,reject,0.7509264000109397,None,0,1443,"null",None,None,None
reward-effort-pgACC-TUS,R88533/RE002,B_2,1,2024-09-19_13h09.27.496,2024-09-19 13:10:57,None,None,2,,,2.094049072265625,1,49,approach,shifted,heart,None,None,None,80,80,75,accept,1.4118463000049815,success,75,1518,"[0.3934839065082238, 0.42263086254587, 0.42263086254587, 0.3934839065082238, 0.3934839065082238, 0.42263086254587, 0.4080573845270469, 0.4080573845270469, 0.4080573845270469, 0.3789104284894007, 0.42263086254587, 0.42263086254587, 0.3934839065082238, 0.42263086254587, 0.42263086254587, 0.4663512966023393, 0.4663512966023393, 0.45177781858351623, 0.4372043405646931, 0.48092477462116245, 0.6703799888658627, 0.6703799888658627, 1.2678925876376101, 2.1277277907481733, 3.1624447300846135, 3.1624447300846135, 3.789104284894007, 4.8529681802680935, 5.8731116415857105, 5.8731116415857105, 6.878681624884504, 8.802380723369154, 10.361742871383226, 10.361742871383226, 11.658782415058482, 12.431176750056107, 13.0578363048655, 14.340302370521934, 14.340302370521934, 15.53532756806543, 16.5263240733454, 18.508317083905343, 18.508317083905343, 21.000381825124094, 23.66732830256872, 25.765909137279248, 25.765909137279248, 27.71875519180154, 30.93949383396145, 34.42255508046017, 34.42255508046017, 37.162368947998914, 42.889745809396395, 45.3526635945775, 45.3526635945775, 50.01617656060089, 53.761560411438424, 55.27720212539603, 55.9475821142619, 55.9475821142619, 57.098886877748924, 60.319625519908826, 63.14688025556051, 63.14688025556051, 66.60079454602158, 70.82710317148029, 72.7945227040214, 72.7945227040214, 75.33030787929663, 76.37959829665189, 76.84594959325423, 77.5163295821201, 77.5163295821201, 78.79879564777652, 80.48931909795999, 83.46230861379992, 87.47001506897627, 87.47001506897627, 91.50686848019026, 93.62002279291963, 95.13566450687722, 95.13566450687722, 96.2578223143266, 96.2578223143266, 96.884481869136, 97.0156431713054, 97.0156431713054, 95.79147101772426, 95.66030971555485, 97.68602316017126, 97.68602316017126, 98.54585836328182, 99.30367922026063, 98.86647487969593, 98.86647487969593, 98.32725619299949, 98.25438880290537, 98.61872575337594, 98.61872575337594, 99.21623835214768, 99.4785609564865, 99.44941400044885, 99.44941400044885, 100.2218083354465, 101.43140701100882, 102.10178699987466, 102.10178699987466, 102.07264004383703, 102.84503437883463, 105.43911346618515, 106.48840388354041, 106.48840388354041, 106.604991707691, 106.08034649901337, 106.12406693306984, 106.12406693306984, 106.09491997703219, 105.42453998816632, 105.35167259807221, 105.35167259807221, 105.30795216401575, 104.17122087854756, 103.16565089524875, 103.16565089524875, 102.93247524694758, 102.88875481289111, 102.24752178006288, 102.24752178006288, 101.12536397261351, 100.62986571997352, 100.35296963761589, 100.35296963761589, 100.04692659922061, 99.87204486299473, 99.95948573110766, 99.95948573110766, 100.03235312120178, 100.2946757255406, 101.25652527478293, 104.22951479062283, 104.22951479062283, 106.95475518014274]",100.99859784635454,2.3626745999936247,None
reward-effort-pgACC-TUS,R88533/RE002,B_2,1,2024-09-19_13h09.27.496,2024-09-19 13:10:57,None,None,2,,,2.094049072265625,1,50,approach,shifted,heart,0.3,3.9416594999929657,4,80,100,102,accept,1.3302918999979738,success,102,1620,"[-0.058293912075292414, -0.07286739009411553, -0.058293912075292414, -0.07286739009411553, -0.07286739009411553, -0.058293912075292414, -0.058293912075292414, -0.07286739009411553, -0.058293912075292414, -0.058293912075292414, -0.058293912075292414, -0.07286739009411553, -0.07286739009411553, -0.058293912075292414, -0.07286739009411553, -0.029146956037646207, -0.029146956037646207, -0.058293912075292414, 0.058293912075292414, 0.18945521424470035, 0.20402869226352344, 0.20402869226352344, 0.27689608235763896, 0.3497634724517545, 0.3789104284894007, 0.3789104284894007, 0.5246452086776318, 0.5829391207529242, 0.5537921647152779, 0.5683656427341011, 0.5683656427341011, 0.6266595548093935, 0.859835203110563, 1.0784373733929096, 1.0784373733929096, 1.282466065656433, 2.331756483011697, 3.716236894799892, 5.217305130738671, 5.217305130738671, 8.30688247072917, 12.576911530244338, 18.508317083905343, 18.508317083905343, 25.051808714356916, 30.079658630850886, 36.15679896470012, 36.15679896470012, 41.66557365581525, 45.104914468257505, 50.04532351663854, 50.04532351663854, 53.12032737861021, 56.41393341086424, 56.41393341086424, 57.91500164680301, 60.30505204189001, 60.30505204189001, 62.068442882167595, 62.068442882167595, 64.10872980480283, 67.6209380073392, 70.47733969902853, 73.15885965449198, 73.15885965449198, 76.05898178023777, 77.31230088985657, 78.23043000504242, 78.23043000504242, 78.66763434560711, 78.85708955985181, 79.01739781805887, 79.01739781805887, 80.28529040569647, 84.22012947077872, 87.16397203058098, 87.16397203058098, 89.17511199717858, 90.13696154642089, 89.6997572058562, 89.6997572058562, 90.18068198047736, 92.55615889754553, 96.0683671000819, 96.0683671000819, 97.87547837441596, 98.60415227535711, 98.60415227535711, 98.779034011583, 98.779034011583, 98.51671140724419, 98.38555010507477, 98.48756445120654, 98.48756445120654, 98.76446053356418, 99.68258964875002, 101.73745004940409, 102.02891960978056, 102.02891960978056, 100.5424248518606, 99.50770791252414, 98.779034011583, 98.779034011583, 98.00663967658537, 97.21967186356892, 95.89348536385603, 95.89348536385603, 95.61658928149839, 95.98092623196895, 95.99549970998778, 95.99549970998778, 96.46185100659012, 97.37998012177597, 97.61315577007714, 97.65687620413361, 97.65687620413361, 97.91919880847243, 98.12322750073595, 98.54585836328182, 98.54585836328182, 99.01220965988416, 98.99763618186535, 99.88661834101356, 99.88661834101356, 100.96505571440646, 100.81932093421824, 99.75545703884414, 99.7263100828065, 99.7263100828065, 100.1635144233712, 100.19266137940883, 99.87204486299473, 99.46398747846769, 99.46398747846769, 98.8373279236583, 98.4729909731877, 97.99206619856655, 97.99206619856655, 97.75889055026538, 97.81718446234066, 97.87547837441596, 97.87547837441596, 98.03578663262303, 98.09408054469831, 97.87547837441596]",98.41469706111245,2.411619599995902,None
reward-effort-pgACC-TUS,R88533/RE002,B_2,1,2024-09-19_13h09.27.496,2024-09-19 13:10:57,None,None,2,,,2.094049072265625,2,51,approach,normal,heart,None,None,None,100,80,72,reject,1.3311735000024782,None,0,1620,"null",None,None,None
reward-effort-pgACC-TUS,R88533/RE002,B_2,1,2024-09-19_13h09.27.496,2024-09-19 13:10:57,None,None,2,,,2.094049072265625,2,52,approach,normal,heart,None,None,None,60,100,98,accept,0.7326571000012336,success,98,1718,"[-0.3789104284894007, -0.3789104284894007, -0.3934839065082238, -0.3934839065082238, -0.36433695047057757, -0.36433695047057757, -0.3497634724517545, -0.3497634724517545, -0.3497634724517545, -0.33518999443293135, -0.33518999443293135, -0.32061651641410827, -0.32061651641410827, -0.2914695603764621, -0.20402869226352344, 0.04372043405646931, 0.04372043405646931, 0.27689608235763896, 0.7432473789599783, 0.7432473789599783, 1.2970395436752562, 1.836258230371711, 1.836258230371711, 2.244315614898758, 3.2353121201787287, 3.2353121201787287, 3.9931329771575306, 4.7509538341363315, 5.91683207564218, 5.91683207564218, 7.22844509733626, 10.65321243175969, 13.203571085053731, 13.203571085053731, 17.53189405664419, 26.115672609731, 33.18380944886021, 33.18380944886021, 41.17007540317527, 50.6574095934291, 56.74912340529716, 56.74912340529716, 62.826263739146405, 70.46276622100972, 73.53777008298138, 73.53777008298138, 76.80222915919775, 76.80222915919775, 78.07012174683537, 77.67663784032715, 77.67663784032715, 76.8313761152354, 76.9625374174048, 77.07912524155539, 77.07912524155539, 76.62734742297188, 74.54334006628017, 72.25530401732495, 72.25530401732495, 70.49191317704735, 69.61750449591797, 69.09285928724034, 68.55364060054387, 68.55364060054387, 68.49534668846859, 68.40790582035565, 67.89783408969684, 67.89783408969684, 67.83954017762154, 67.97070147979095, 67.32946844696274, 67.32946844696274, 66.61536802404041, 66.62994150205922, 66.51335367790865, 66.51335367790865, 66.28017802960747, 65.68266543083573, 65.52235717262867, 65.52235717262867, 65.30375500234634, 64.85197718376281, 64.79368327168751, 64.79368327168751, 64.72081588159341, 64.60422805744281, 64.2107441509346, 63.773539810369904, 63.773539810369904, 63.23432112367344, 62.21417766235583, 62.05386940414878, 62.05386940414878, 62.15588375028054, 62.18503070631818, 62.461926788675825, 63.11773329952286, 63.11773329952286, 63.49664372801226, 63.78811328838873, 63.773539810369904, 63.773539810369904, 63.817260244426365, 64.61880153546164, 65.05600587602633]",67.96075450273051,1.7531111999996938,None
reward-effort-pgACC-TUS,R88533/RE002,B_2,1,2024-09-19_13h09.27.496,2024-09-19 13:10:57,None,None,2,,,2.094049072265625,2,53,approach,normal,heart,None,None,None,85,60,55,reject,0.6415489000064554,None,0,1718,"null",None,None,None
reward-effort-pgACC-TUS,R88533/RE002,B_2,1,2024-09-19_13h09.27.496,2024-09-19 13:10:57,None,None,2,,,2.094049072265625,2,54,approach,normal,heart,None,None,None,60,20,20,reject,0.8217531999980565,None,0,1718,"null",None,None,None
reward-effort-pgACC-TUS,R88533/RE002,B_2,1,2024-09-19_13h09.27.496,2024-09-19 13:10:57,None,None,2,,,2.094049072265625,2,55,approach,normal,heart,None,None,None,55,40,36,reject,1.79526579999947,None,0,1718,"null",None,None,None
reward-effort-pgACC-TUS,R88533/RE002,B_2,1,2024-09-19_13h09.27.496,2024-09-19 13:10:57,None,None,2,,,2.094049072265625,2,56,approach,normal,heart,None,None,None,90,100,98,accept,0.9338457999983802,success,98,1816,"[0.08744086811293862, 0.08744086811293862, 0.08744086811293862, 0.08744086811293862, 0.08744086811293862, 0.07286739009411553, 0.07286739009411553, 0.07286739009411553, 0.08744086811293862, 0.08744086811293862, 0.07286739009411553, 0.04372043405646931, 0.04372043405646931, 0.10201434613176172, 0.17488173622587724, 0.17488173622587724, 0.18945521424470035, 0.2914695603764621, 0.2914695603764621, 0.3497634724517545, 0.48092477462116245, 0.48092477462116245, 0.7432473789599783, 1.122157807449379, 1.3261864997129025, 1.3261864997129025, 1.7050969282023032, 3.0312834279152057, 3.672516460743422, 4.328322971590462, 4.328322971590462, 5.086143828569263, 6.222875114037466, 7.417900311580959, 7.417900311580959, 10.026552876950296, 12.72264631043257, 15.418739743914845, 19.280711418902964, 19.280711418902964, 25.9262173954863, 31.230963394337913, 36.75431156347187, 36.75431156347187, 44.900885775993984, 52.27506565351847, 56.15161080652542, 59.45979031679827, 59.45979031679827, 62.69510243697699, 65.56607760668514, 70.0838557925203, 70.0838557925203, 75.18457309910839, 77.79322566447773, 80.60590692211058, 80.60590692211058, 84.40958468502342, 84.77392163549399, 84.35129077294813, 84.22012947077872, 84.22012947077872, 85.77949161879279, 88.70876070057622, 88.70876070057622, 91.5214419582091, 94.494431474049, 94.494431474049, 96.27239579234542, 97.5840088140395, 97.5840088140395, 98.06493358866067, 98.56043184130064, 99.84289790695709, 99.84289790695709, 101.51884787912174, 103.16565089524875, 104.02548609835931, 104.02548609835931, 104.40439652684871, 103.22394480732405, 102.72844655468406, 102.72844655468406, 102.39325656025113, 101.85403787355467, 100.87761484629351, 100.71730658808646, 100.71730658808646, 100.2218083354465, 99.6680161707312, 98.79360748960183, 98.79360748960183, 98.63329923139477, 98.70616662148888, 98.67701966545124, 98.67701966545124, 98.29810923696184, 98.0212131546042, 97.84633141837831, 97.70059663819009, 97.70059663819009, 97.61315577007714, 97.40912707781362, 97.40912707781362, 97.17595142951245, 97.00106969328658, 96.70960013291011, 97.11765751743717, 97.11765751743717, 97.51114142394539, 97.59858229205832, 97.17595142951245, 97.17595142951245, 96.40355709451484, 96.94277578121128, 97.3362596877195, 97.3362596877195, 97.24881881960657, 96.79704100102306, 96.72417361092894, 95.55829536942309, 95.55829536942309, 95.00450320470782, 95.38341363319721, 95.9372057979125]",97.91781085818495,2.076792999985628,None
reward-effort-pgACC-TUS,R88533/RE002,B_2,1,2024-09-19_13h09.27.496,2024-09-19 13:10:57,None,None,2,,,2.094049072265625,2,57,approach,normal,heart,None,None,None,75,80,72,accept,0.8115943000011612,success,72,1888,"[0.014573478018823104, -0.014573478018823104, -0.014573478018823104, 0.029146956037646207, 0.029146956037646207, 0.014573478018823104, 0.014573478018823104, 0.0, -0.014573478018823104, -0.08744086811293862, -0.08744086811293862, -0.08744086811293862, -0.10201434613176172, -0.07286739009411553, -0.04372043405646931, -0.04372043405646931, 0.2623226043388159, 1.0347169393364404, 1.0347169393364404, 1.4864947579199566, 1.4864947579199566, 3.5122082025363683, 5.275599042813964, 8.569205075067984, 8.569205075067984, 12.897528046658447, 17.459026666550077, 26.742332164540393, 26.742332164540393, 34.43712855847899, 42.175645386474066, 49.28750265965974, 49.28750265965974, 54.06760344983371, 57.87128121274654, 60.3633459539653, 60.3633459539653, 62.84083721716522, 65.77010629894868, 68.1893036500733, 68.1893036500733, 70.1421497045956, 72.88196357213434, 79.1048386861718, 79.1048386861718, 81.10140517475057, 81.10140517475057, 82.26728341625642, 82.35472428436937, 82.35472428436937, 80.70792126824234, 80.4310251858847, 82.19441602616232, 82.19441602616232, 83.44773513578109, 82.92308992710346, 79.93552693324473, 79.2359999883412, 79.2359999883412, 79.04654477409652, 78.842516081833, 78.47817913136241, 78.47817913136241, 78.11384218089184, 77.98268087872243, 77.86609305457183, 77.93896044466597, 77.93896044466597, 77.9681074007036, 77.95353392268478, 77.95353392268478, 77.92438696664713, 77.89524001060948, 77.90981348862832, 77.90981348862832, 77.95353392268478, 77.93896044466597, 78.24500348306125, 78.24500348306125, 78.28872391711771, 78.14298913692949, 78.04097479079772, 78.04097479079772, 78.08469522485419, 77.8369460985342, 77.38516827995068, 77.2102865437248, 77.2102865437248, 77.07912524155539, 76.6419209009907, 76.52533307684011, 76.52533307684011, 76.5107595988213, 76.33587786259541, 76.02983482420012, 76.02983482420012, 75.41774874740956, 74.99511788486369, 74.20815007184724, 74.20815007184724, 73.47947617090608, 73.21715356656728, 73.72722529722608]",78.10380798291166,1.7469232000003103,None
reward-effort-pgACC-TUS,R88533/RE002,B_2,1,2024-09-19_13h09.27.496,2024-09-19 13:10:57,None,None,2,,,2.094049072265625,2,58,approach,normal,heart,None,None,None,80,40,38,reject,0.6640544000110822,None,0,1888,"null",None,None,None
reward-effort-pgACC-TUS,R88533/RE002,B_2,1,2024-09-19_13h09.27.496,2024-09-19 13:10:57,None,None,2,,,2.094049072265625,2,59,approach,normal,heart,0.2,2.856868899994879,1,75,20,19,reject,1.2229560999985551,None,0,1888,"null",None,None,None
reward-effort-pgACC-TUS,R88533/RE002,B_2,1,2024-09-19_13h09.27.496,2024-09-19 13:10:57,None,None,2,,,2.094049072265625,2,60,approach,normal,heart,None,None,None,60,80,66,accept,0.7665903000015533,success,66,1954,"[0.20402869226352344, 0.20402869226352344, 0.20402869226352344, 0.16030825820705413, 0.16030825820705413, 0.18945521424470035, 0.18945521424470035, 0.21860217028234655, 0.23317564830116966, 0.21860217028234655, 0.21860217028234655, 0.20402869226352344, 0.20402869226352344, 0.20402869226352344, 0.20402869226352344, 0.23317564830116966, 0.20402869226352344, 0.2623226043388159, 0.2623226043388159, 0.3060430383952851, 0.5100717306588086, 0.7141004229223321, 0.7141004229223321, 1.4573478018823103, 2.2005951808422886, 3.2790325542351986, 4.153441235364585, 4.153441235364585, 5.086143828569263, 6.426903806300989, 8.904395069500916, 8.904395069500916, 11.440180244776137, 14.588051496841928, 19.047535770601794, 19.047535770601794, 24.687471763886336, 30.254540367076764, 35.3261107176272, 35.3261107176272, 41.709294089871726, 44.507401869485754, 46.037617061462186, 46.037617061462186, 47.917595725890365, 49.88501525843148, 50.97802610984321, 50.97802610984321, 51.80871435691613, 52.26049217549965, 51.98359609314201, 51.42980392842673, 51.42980392842673, 51.61925914267144, 51.98359609314201, 52.449947389744345, 52.449947389744345, 53.309782592854916, 53.58667867521255, 53.47009085106197, 53.47009085106197, 53.35350302691138, 53.4263704170055, 54.053029971814894, 54.053029971814894, 55.26262864737721, 55.93300863624307, 57.273768613974795, 58.04616294897242, 58.38135294340535, 58.89142467406416, 58.89142467406416, 59.19746771245945, 59.19746771245945, 58.90599815208299, 58.468793811518296, 58.70196945981946, 58.70196945981946, 60.13017030566412, 60.785976816511166, 61.22318115707586, 61.22318115707586, 61.3106220251888, 61.135740288962914, 60.59652160226646, 60.59652160226646, 60.64024203632293, 60.887991162642926, 61.092019854906454, 61.61666506358409, 61.61666506358409, 62.461926788675825, 63.409202859899324, 64.54593414536753, 64.54593414536753, 64.837403705744, 65.7846797769675, 66.33847194168277, 66.33847194168277, 66.06157585932513, 65.88669412309926, 65.63894499677926, 65.63894499677926, 65.34747543640279, 66.1052962933816, 67.32946844696274, 68.11643625997918, 68.11643625997918, 69.3843288476168, 69.83610666620031, 69.76323927610619, 69.76323927610619, 69.80695971016266, 69.98184144638854, 70.15672318261443, 70.15672318261443, 70.18587013865206, 69.9526944903509, 69.35518189157915, 69.35518189157915, 69.35518189157915, 69.34060841356032, 68.27674451818623, 66.61536802404041, 66.61536802404041, 65.27460804630869, 64.72081588159341, 64.7791097936687, 64.7791097936687, 64.7791097936687]",64.38493191201674,2.1883734000002733,None
reward-effort-pgACC-TUS,R88533/RE002,B_2,1,2024-09-19_13h09.27.496,2024-09-19 13:10:57,None,None,2,,,2.094049072265625,2,61,approach,normal,heart,None,None,None,75,60,53,reject,0.761149199999636,None,0,1954,"null",None,None,None
reward-effort-pgACC-TUS,R88533/RE002,B_2,1,2024-09-19_13h09.27.496,2024-09-19 13:10:57,None,None,2,,,2.094049072265625,2,62,approach,normal,heart,None,None,None,65,60,56,accept,1.0283724000037182,success,56,2010,"[0.24774912631999277, 0.2623226043388159, 0.2623226043388159, 0.24774912631999277, 0.23317564830116966, 0.23317564830116966, 0.24774912631999277, 0.24774912631999277, 0.21860217028234655, 0.21860217028234655, 0.24774912631999277, 0.2623226043388159, 0.24774912631999277, 0.24774912631999277, 0.24774912631999277, 0.3060430383952851, 0.5537921647152779, 1.0638638953740867, 1.0638638953740867, 1.4864947579199566, 2.739813867538744, 4.051426889232824, 4.051426889232824, 5.683656427341011, 7.272165531392728, 9.924538530818532, 9.924538530818532, 12.620631964300808, 17.196704062211264, 23.958797862945183, 29.16152951566503, 29.16152951566503, 35.413551585740144, 40.616283238459985, 44.23050578712812, 44.23050578712812, 46.35823357787629, 49.91416221446913, 53.19319476870433, 53.19319476870433, 54.43194040030429, 56.166184284544244, 57.62353208642656, 57.62353208642656, 58.90599815208299, 60.66938899236058, 61.79154679980996, 62.68052895895817, 63.817260244426365, 63.817260244426365, 64.76453631564986, 66.45505976583335, 66.45505976583335, 68.53906712252505, 68.67022842469447, 67.60636452932037, 67.60636452932037, 66.1052962933816, 65.63894499677926, 66.36761889772042, 66.36761889772042, 67.14001323271805, 67.16916018875568, 66.38219237573924, 66.38219237573924, 65.58065108470397, 65.2308876122522, 65.69723890885454, 65.69723890885454, 66.51335367790865, 66.57164758998394, 66.61536802404041, 66.61536802404041, 66.64451498007806, 66.484206721871, 66.20731063951337, 66.20731063951337, 66.36761889772042, 66.51335367790865, 66.70280889215334, 67.78124626554626, 67.78124626554626, 68.96169798507093, 69.50091667176737, 69.87982710025679, 69.87982710025679, 70.521060133085, 70.76880925940499, 70.79795621544264, 70.79795621544264, 70.38989883091558, 70.57935404516029, 71.00198490770616, 71.00198490770616, 70.98741142968734, 70.68136839129205, 70.28788448478383, 70.28788448478383, 69.82153318818149, 69.23859406742856, 68.72852233676976, 68.72852233676976, 68.48077321044977, 68.2475975621486, 67.8686871336592, 67.51892366120744, 67.51892366120744, 67.57721757328274, 67.59179105130156]",67.62880305896842,1.8406650999968406,None
reward-effort-pgACC-TUS,R88533/RE002,B_2,1,2024-09-19_13h09.27.496,2024-09-19 13:10:57,None,None,2,,,2.094049072265625,2,63,approach,normal,heart,None,None,None,100,20,19,reject,0.8290297999919858,None,0,2010,"null",None,None,None
reward-effort-pgACC-TUS,R88533/RE002,B_2,1,2024-09-19_13h09.27.496,2024-09-19 13:10:57,None,None,2,,,2.094049072265625,2,64,approach,normal,heart,None,None,None,80,60,68,reject,4.532753699997556,None,0,2010,"null",None,None,None
