expName,curec_ID,trial_schedule,session_nr,date,end_date,participant,age,gender,max_strength,block_number,trial_count,block_action_type,block_global_effort_state,block_attention_focus,trial_rating,trial_effort,trial_outcome_level,trial_actual_outcome,response,response_time,result,points,cumulative_points,effort_trace,effort_expended,effort_response_time
reward-effort-pgACC-TUS,R88533/RE002,testing,0,2024-07-05_11h06.53.906,None,333,28,f,1.916839599609375,1,1,avoid,shifted,reward,0.6799999999999999,80,-40,-40,accept,4.259236400015652,success,0,0,"[0.17512856028402668, 0.17512856028402668, 0.19104933849166547, 0.19104933849166547, 0.19104933849166547, 0.17512856028402668, 0.20697011669930424, 0.19104933849166547, 0.19104933849166547, 0.20697011669930424, 0.19104933849166547, 0.22289089490694305, 0.22289089490694305, 0.20697011669930424, 0.20697011669930424, 0.2547324513222206, 0.2547324513222206, 0.20697011669930424, 0.23881167311458185, 0.3184155641527758, 0.41394023339860847, 0.41394023339860847, 0.52538568085208, 0.7164350193437455, 0.7323557975513842, 0.7323557975513842, 0.8438012450048559, 0.9234051360430497, 0.9234051360430497, 1.0030090270812437, 1.0189298052888824, 0.9711674706659661, 1.0348505834965211, 1.0348505834965211, 1.3214245912340197, 1.4487908168951298, 1.4487908168951298, 2.8338985209597043, 5.12649058285969, 9.663912372036746, 16.20735221537629, 16.20735221537629, 26.332967155434556, 35.073474391428256, 40.43877664740253, 40.43877664740253, 47.1573450510261, 51.869895400487174, 58.3655729092038, 58.3655729092038, 63.237331040741275, 66.7399022464218, 69.82853321870373, 69.82853321870373, 71.88231360748914, 75.32120170033912, 76.86551718648008, 76.86551718648008, 78.56904045469743, 79.44468325611756, 80.78202862555922, 80.78202862555922, 81.81687920905574, 81.8805623218863, 81.67359220518698, 81.67359220518698, 81.68951298339464, 81.38701819744949, 81.00491952046616, 81.08452341150435, 81.08452341150435, 81.38701819744949, 81.67359220518698, 82.74028434509879, 82.74028434509879, 83.90250115425641, 84.714460842846, 84.714460842846, 85.25576730190572, 87.19810224323766, 89.29964496664597, 89.29964496664597, 90.22305010268902, 91.6081578067536, 93.4549680788397, 93.4549680788397, 94.56942255337441, 95.97045103564662, 97.6421327474487, 98.83619111302161, 98.83619111302161, 98.94763656047508, 97.67397430386397, 97.67397430386397, 96.9416185063126, 97.51476652178759, 97.6421327474487, 97.6421327474487, 96.89385617168968, 96.75056916782093, 96.67096527678272, 95.49282768941745, 95.49282768941745, 94.01219531610705, 90.90764356561749, 90.20712932448139, 90.20712932448139, 90.54146566684179, 90.89172278740985, 90.4618617758036, 90.4618617758036, 90.06384232061264, 90.36633710655776, 89.1881995191925, 89.1881995191925, 86.19509321615641, 85.66970753530433, 86.0677269904953, 86.0677269904953, 85.81299453917308, 85.44681664039739, 85.27168808011336, 85.27168808011336, 85.62194520068141, 86.25877632898697, 86.54535033672445, 86.54535033672445, 85.95628154304183, 85.74931142634253, 86.08364776870293, 86.08364776870293, 87.51651780739043, 88.55136839088694, 90.3026539937272, 90.3026539937272, 91.11461368231679, 91.6081578067536, 91.54447469392304, 91.54447469392304, 91.97433570552928, 93.10471095827164, 93.8689083122383, 93.8689083122383, 94.72863033545079, 95.73163936253204, 97.02122239735078, 97.02122239735078, 98.75658722198341, 99.25013134642022, 99.26605212462786, 99.26605212462786, 99.29789368104312, 99.26605212462786, 98.85211189122924, 98.85211189122924, 98.40633010141536, 97.78541975131745, 97.30779640508828, 97.30779640508828, 96.83017305885912, 96.32070815621468, 96.32070815621468, 96.32070815621468, 96.35254971262995, 96.01821337026954, 95.90676792281607, 95.90676792281607, 96.0022925920619, 96.14557959593066, 95.89084714460843, 95.89084714460843, 96.05005492668481, 96.11373803951537, 95.81124325357024, 95.7953224753626, 95.7953224753626, 96.03413414847718, 96.30478737800703, 96.63912372036745, 96.63912372036745, 97.7694989731098, 97.83318208594036, 97.33963796150356, 97.33963796150356, 97.32371718329593, 97.46700418716466, 97.41924185254175, 97.41924185254175, 96.9097769498973, 96.71872761140564, 97.18043017942716, 97.18043017942716]",95.9083339010004,3.166214399971068
reward-effort-pgACC-TUS,R88533/RE002,testing,0,2024-07-05_11h06.53.906,None,333,28,f,1.916839599609375,1,2,avoid,shifted,reward,0.704,90,-80,-81,accept,2.0923377000144683,success,0,0,"[0.4457817898138861, 0.42986101160624735, 0.42986101160624735, 0.3980194551909697, 0.3980194551909697, 0.3980194551909697, 0.42986101160624735, 0.42986101160624735, 0.4457817898138861, 0.3980194551909697, 0.4457817898138861, 0.4457817898138861, 0.4457817898138861, 0.4457817898138861, 0.4457817898138861, 0.4457817898138861, 0.3661778987756921, 0.3661778987756921, 0.3661778987756921, 0.3661778987756921, 0.2547324513222206, 0.3184155641527758, 0.3661778987756921, 0.3661778987756921, 0.3980194551909697, 0.5094649026444412, 1.1781375873652704, 1.735364824632628, 1.735364824632628, 2.3085128401076247, 2.404037509353457, 2.515482956806929, 2.515482956806929, 2.961264746620815, 4.043877664740252, 5.954371049656907, 5.954371049656907, 10.857970737609653, 17.48101447198739, 25.982710034866503, 25.982710034866503, 32.89232777698174, 38.38499625861712, 47.30063205489484, 47.30063205489484, 50.29373835793094, 55.483912053621175, 60.10093773383643, 63.141806371495434, 63.141806371495434, 65.2592698731114, 67.87027749916416, 69.90813710974192, 69.90813710974192, 71.5002149305058, 74.68437057203357, 76.00579516326758, 76.00579516326758, 77.15209119421758, 78.50535734186687, 79.14218847017243, 79.69941570743978, 79.69941570743978, 80.78202862555922, 81.14820652433491, 83.40895702981962, 83.40895702981962, 84.65077773001545, 87.22994379965293, 91.14645523873207, 91.14645523873207, 93.32760185317859, 94.41021477129802, 94.4898186623362, 94.4898186623362, 94.33061088025983, 94.17140309818343, 93.93259142506885, 93.93259142506885, 94.52166021875149, 95.30177835092579, 94.56942255337441, 94.56942255337441, 93.98035375969177, 93.85298753403066, 93.83706675582303, 93.83706675582303, 93.1683940711022, 91.95841492732166, 92.11762270939803, 92.11762270939803, 92.8818200633647, 93.98035375969177, 95.44506535479455, 95.44506535479455, 95.30177835092579, 95.55651080224801, 96.01821337026954, 96.01821337026954, 96.63912372036745, 97.4829249653723, 100.23721959529381, 101.70193119039659, 101.70193119039659, 102.45020776615561, 103.19848434191464, 103.45321679323685, 103.45321679323685, 103.32585056757576, 102.09995064558757, 101.82929741605771, 101.82929741605771, 102.52981165719382, 102.6890194392702, 101.70193119039659, 101.70193119039659, 101.97258441992645, 102.6890194392702, 102.75270255210074, 102.75270255210074, 102.38652465332505, 102.609415548232, 102.84822722134659, 102.84822722134659, 102.609415548232, 102.67309866106255, 103.19848434191464, 103.19848434191464, 103.35769212399101, 103.29400901116045, 103.11888045087645, 103.11888045087645, 102.8163856649313, 102.67309866106255, 102.2432376494563, 102.2432376494563, 102.30692076228686, 102.67309866106255, 102.65717788285491, 102.65717788285491, 102.38652465332505, 102.38652465332505, 102.22731687124866, 102.41836620974034, 102.41836620974034, 102.46612854436326, 102.51389087898617, 102.52981165719382, 102.52981165719382, 102.51389087898617, 102.49797010077853, 102.49797010077853, 102.49797010077853, 102.52981165719382, 102.49797010077853, 102.35468309690978, 102.72086099568547, 102.72086099568547, 103.16664278549936, 103.51689990606741, 103.85123624842782]",102.49718711168636,2.6655042999773286
reward-effort-pgACC-TUS,R88533/RE002,testing,0,2024-07-05_11h06.53.906,None,333,28,f,1.916839599609375,1,3,avoid,shifted,reward,0.71,95,-40,-36,accept,3.145124099974055,success,0,0,"[0.6527519065131904, 0.6527519065131904, 0.6368311283055516, 0.6368311283055516, 0.6368311283055516, 0.6209103500979127, 0.6527519065131904, 0.6527519065131904, 0.5890687936826352, 0.6527519065131904, 0.6527519065131904, 0.6527519065131904, 0.6527519065131904, 0.6209103500979127, 0.684593462928468, 0.684593462928468, 0.6368311283055516, 0.6368311283055516, 0.604989571890274, 0.604989571890274, 0.6368311283055516, 0.6686726847208292, 0.6209103500979127, 0.6209103500979127, 0.6527519065131904, 0.6527519065131904, 0.6368311283055516, 0.6527519065131904, 0.6527519065131904, 0.6527519065131904, 0.6209103500979127, 0.6209103500979127, 0.604989571890274, 0.6368311283055516, 0.6209103500979127, 0.6209103500979127, 0.6368311283055516, 0.6686726847208292, 0.6209103500979127, 0.6209103500979127, 0.6209103500979127, 0.6209103500979127, 0.604989571890274, 0.6368311283055516, 0.6368311283055516, 0.6527519065131904, 0.604989571890274, 0.6527519065131904, 0.6527519065131904, 0.6686726847208292, 0.6527519065131904, 0.6527519065131904, 0.6527519065131904, 0.6368311283055516, 0.6209103500979127, 0.6209103500979127, 0.6209103500979127, 0.6368311283055516, 0.6209103500979127, 0.6527519065131904, 0.6527519065131904, 0.6368311283055516, 0.6527519065131904, 0.6527519065131904, 0.6527519065131904, 0.6209103500979127, 0.6368311283055516, 0.604989571890274, 0.604989571890274, 0.6368311283055516, 0.6368311283055516, 0.6527519065131904, 0.6527519065131904, 0.6686726847208292, 0.6368311283055516, 0.6686726847208292, 0.6686726847208292, 0.6527519065131904, 0.6527519065131904, 0.6368311283055516, 0.6368311283055516, 0.6209103500979127, 0.6368311283055516, 0.6209103500979127, 0.6209103500979127, 0.6527519065131904, 0.6527519065131904, 0.6368311283055516, 0.6368311283055516, 0.6527519065131904, 0.6686726847208292, 0.7005142411361067, 0.7005142411361067, 0.7005142411361067, 0.9711674706659661, 1.9900972759548485, 1.9900972759548485, 2.9135024119978983, 3.8209867698333095, 5.142411361067329, 6.527519065131903, 6.527519065131903, 8.804190348824251, 11.892821321106176, 14.137651048383246, 14.137651048383246, 17.974558596424192, 24.629443887217207, 31.172883730556748, 31.172883730556748, 36.26753275700116, 44.02095174412125, 48.90863065386636, 48.90863065386636, 54.003279680310776, 57.50585088599131, 57.50585088599131, 61.04026364808712, 64.4791517409371, 67.53594115680374, 67.53594115680374, 68.20461384152458, 69.63748388021207, 72.10520450239608, 72.10520450239608, 74.89134068873287, 75.87842893760647, 77.45458598016272, 77.45458598016272, 78.95113913168076, 79.97006893696964, 82.10345321679323, 82.10345321679323, 82.89949212717518, 83.6477687029342, 83.34527391698906, 83.34527391698906, 82.31042333349254, 81.8009584308481, 82.31042333349254, 82.31042333349254, 82.75620512330643, 82.72436356689114, 82.67660123226823, 82.67660123226823, 83.6477687029342, 84.73038162105364, 84.74630239926128, 84.74630239926128, 85.44681664039739, 86.13141010332585, 86.44982566747863, 86.44982566747863, 89.41109041409943, 91.57631625033832, 93.0091862890258, 93.0091862890258, 94.3146901020522, 95.63611469328622, 96.11373803951537, 97.00530161914315, 97.00530161914315, 96.6550444985751, 96.75056916782093, 99.37749757208132, 99.37749757208132, 100.20537803887855, 99.93472480934868, 99.93472480934868, 99.9824871439716, 99.21828979000493, 96.01821337026954, 96.01821337026954, 94.3624524366751, 93.96443298148414, 94.37837321488274, 95.23809523809523, 95.23809523809523, 95.38138224196399, 95.89084714460843, 96.6550444985751, 96.6550444985751, 97.94462753339384, 98.77250800019105, 99.39341835028897, 99.39341835028897, 100.87405072359937, 101.38351562624382, 102.25915842766395, 102.25915842766395, 104.28109726003407, 106.46224387448058, 108.05432169524447, 108.05432169524447, 110.18770597506806, 110.71309165592014, 110.25138908789862, 110.10810208402985, 110.10810208402985, 110.23546830969097, 110.58572543025905, 110.58572543025905, 110.99966566365764, 112.2574071420611, 114.2634251962236, 114.2634251962236, 116.55601725812357, 117.71823406728122, 117.47942239416662, 117.47942239416662, 117.06548216076801, 117.17692760822149, 117.04956138256037, 117.04956138256037, 115.23459266688955, 113.57883173329513, 113.57883173329513, 113.57883173329513, 112.16188247281526, 110.87229943799653, 110.39467609176737, 110.39467609176737, 109.96481508016112, 108.46826192864307, 107.86327235675279, 107.86327235675279, 108.29313336835904, 108.21352947732086, 107.81551002212989, 107.81551002212989, 108.4364203722278, 108.86628138383405, 107.22644122844724, 107.22644122844724, 105.5229179602299, 104.61543360239449, 103.08703889446116, 103.08703889446116, 101.38351562624382, 98.64514177452995, 98.15159765009314, 98.15159765009314, 98.15159765009314, 97.27595484867301, 97.3555587397112, 97.3555587397112, 100.17353648246325, 101.24022862237507, 101.24022862237507, 101.24022862237507, 101.03325850567575, 98.99539889509799, 98.85211189122924, 98.64514177452995, 98.64514177452995, 97.16450940121953, 96.76648994602857, 97.43516263074939, 97.43516263074939, 98.23120154113133, 98.0560729808473, 99.17052745538201, 99.17052745538201, 101.00141694926049, 101.90890130709589, 102.17955453662574, 102.17955453662574, 104.42438426390281, 107.86327235675279, 109.02548916591044, 109.02548916591044, 109.9966566365764, 113.1967330563118, 115.39380044896595, 115.39380044896595, 115.3778796707583, 115.47340434000415, 116.07839391189441, 116.07839391189441, 116.46049258887774, 115.68037445670345, 115.63261212208053, 115.63261212208053, 116.09431469010205, 116.18983935934789, 115.99879002085622, 115.99879002085622, 117.20876916463676, 117.28837305567497, 116.25352247217845, 116.25352247217845, 115.26643422330483, 114.72512776424513, 114.69328620782984, 114.69328620782984, 113.35594083838818, 111.50913056630208, 110.63348776488195, 110.63348776488195, 110.45835920459793, 109.40758784289375, 108.69115282355001, 108.69115282355001, 107.99063858241391, 107.40156978873128, 107.2105204502396, 107.22644122844724, 107.22644122844724, 106.62145165655697, 105.7298880769292, 104.50398815494101, 104.50398815494101, 103.77163235738962, 103.48505834965214, 101.81337663785006, 101.81337663785006, 101.68601041218895, 102.62533632643964, 102.62533632643964, 102.38652465332505, 102.1636337584181, 102.41836620974034, 102.46612854436326, 102.46612854436326, 101.78153508143477]",109.52399222126434,5.381003799964674
reward-effort-pgACC-TUS,R88533/RE002,testing,0,2024-07-05_11h06.53.906,None,333,28,f,1.916839599609375,2,4,avoid,normal,reward,0.614,55,-20,-20,accept,1.487104100000579,success,0,0,"[0.5572272372673577, 0.5890687936826352, 0.5890687936826352, 0.5890687936826352, 0.5572272372673577, 0.5731480154749964, 0.5731480154749964, 0.604989571890274, 0.52538568085208, 0.5731480154749964, 0.5731480154749964, 0.5890687936826352, 0.5572272372673577, 0.5572272372673577, 0.5572272372673577, 0.5731480154749964, 0.52538568085208, 0.5731480154749964, 0.5731480154749964, 0.5731480154749964, 0.5890687936826352, 0.5890687936826352, 0.6368311283055516, 0.6368311283055516, 0.7960389103819394, 1.066692139911799, 1.4169492604798521, 1.4169492604798521, 2.706532295298594, 4.012036108324975, 5.285698364936079, 5.285698364936079, 7.387241088344398, 11.17638630176243, 14.201334161213799, 14.201334161213799, 16.621292448774895, 20.553724666061676, 26.20560092977345, 26.20560092977345, 29.533043575169955, 33.17890178471924, 36.299374313416436, 36.299374313416436, 37.73224435210393, 38.225788476540735, 37.90737291238796, 37.90737291238796, 36.74515610323033, 36.26753275700116, 36.74515610323033, 36.74515610323033, 37.445670344366434, 38.36907548040948, 39.81786629730461, 39.81786629730461, 42.73136870930251, 45.58118800846985, 46.82300870866568, 46.82300870866568, 47.061820381780265, 47.539443728009424, 48.383244973014286, 48.383244973014286, 48.829026762828164, 50.65991625670663, 53.573418668704534, 55.149575711260766, 55.149575711260766, 56.10482240371909, 57.31480154749964, 58.540701469487836, 58.540701469487836, 60.03725462100588, 60.54671952365032, 60.4989571890274, 60.53079874544268, 60.53079874544268, 60.769610418557264, 61.00842209167185, 61.74077788922323, 61.74077788922323, 62.743786916304465, 62.807470029135025, 62.696024581681556, 62.696024581681556, 62.839311585550305, 63.04628170224961, 63.09404403687252, 63.09404403687252, 63.04628170224961, 62.807470029135025, 62.56865835602044, 62.56865835602044, 62.17063890082948, 61.74077788922323, 61.549728550731565, 61.549728550731565, 61.70893633280795, 61.852223336676694, 61.78854022384614, 61.78854022384614, 61.86814411488434, 61.931827227714884, 61.884064893091974, 61.629332441769755, 61.629332441769755, 61.61341166356211, 61.39052076865518, 61.10394676091767, 61.10394676091767, 60.944738978841286, 60.69000652751907, 60.54671952365032, 60.54671952365032, 60.43527407619684, 60.276066294120454, 60.06909617742116, 60.06909617742116, 60.10093773383643, 60.244224737705174, 60.5785610800656, 60.5785610800656, 60.62632341468851, 60.912897422426006, 60.992501313464196, 60.992501313464196, 60.992501313464196]",60.98545441163459,2.0993538000038825
reward-effort-pgACC-TUS,R88533/RE002,testing,0,2024-07-05_11h06.53.906,None,333,28,f,1.916839599609375,2,5,avoid,normal,reward,0.614,90,-40,-40,accept,1.15030520001892,success,0,0,"[0.41394023339860847, 0.41394023339860847, 0.38209867698333094, 0.38209867698333094, 0.38209867698333094, 0.3980194551909697, 0.3980194551909697, 0.3980194551909697, 0.38209867698333094, 0.41394023339860847, 0.41394023339860847, 0.41394023339860847, 0.3980194551909697, 0.41394023339860847, 0.3661778987756921, 0.3661778987756921, 0.3980194551909697, 0.42986101160624735, 0.42986101160624735, 0.42986101160624735, 0.4617025680215249, 0.684593462928468, 1.2418207001958255, 3.247838754358313, 3.247838754358313, 5.938450271449269, 10.905733072232572, 15.761570425562402, 15.761570425562402, 23.1488115139068, 30.26539937272134, 35.328206842750475, 35.328206842750475, 39.57905462419003, 47.12550349461082, 49.24296699622678, 49.24296699622678, 52.936587540398975, 57.07598987438506, 58.620305360526025, 58.620305360526025, 59.878046838929485, 60.81737275318018, 63.062202480457245, 63.062202480457245, 64.87717119612807, 66.89911002849819, 69.20762286860582, 69.20762286860582, 71.3728487048447, 75.81474582477593, 79.42876247790991, 81.96016621292449, 81.96016621292449, 83.71145181576476, 84.14131282737101, 84.98511407237585, 84.98511407237585, 86.57719189313974, 88.96530862428556, 91.28974224260081, 91.28974224260081, 91.99025648373691, 93.24799796214039, 93.24799796214039, 94.34653165846747, 94.77639267007372, 95.73163936253204, 95.73163936253204, 96.6550444985751, 97.5625288564105, 98.37448854500008, 97.5625288564105, 97.5625288564105, 97.70581586027926, 98.80434955660633, 97.6421327474487, 97.6421327474487, 96.6550444985751, 95.20625368167997, 94.9356004521501, 96.09781726130772, 96.09781726130772, 96.28886659979939, 96.27294582159176, 95.84308480998551, 95.84308480998551, 95.81124325357024, 96.16150037413828, 96.67096527678272, 96.67096527678272, 97.43516263074939, 96.6550444985751, 96.30478737800703, 96.30478737800703, 96.0818964831001, 95.31769912913344, 95.98637181385426, 95.98637181385426, 95.82716403177788, 93.43904730063205, 92.53156294279664, 92.53156294279664, 91.59223702854595, 90.4618617758036, 88.99715018070083, 88.99715018070083, 88.86978395503972, 88.8220216204168, 89.61806053079874, 89.61806053079874, 90.00015920778208, 89.49069430513762, 89.12451640636195, 89.12451640636195, 90.58922800146472, 91.0350097912786, 90.20712932448139, 90.20712932448139, 91.33750457722374, 91.92657337090637, 92.05393959656747, 92.05393959656747, 92.83405772874178, 93.4549680788397, 93.96443298148414, 93.96443298148414, 94.10771998535289, 94.1554823199758, 94.66494722262024, 94.66494722262024, 95.25401601630288, 95.26993679451051, 96.12965881772301, 96.6232029421598, 96.6232029421598, 96.44807438187578, 96.41623282546051, 96.7824107242362, 96.7824107242362, 97.05306395376606, 97.02122239735078, 96.47991593829106, 96.47991593829106, 95.87492636640079, 95.87492636640079, 96.11373803951537, 96.11373803951537, 96.9097769498973, 97.97646908980911, 96.71872761140564, 96.71872761140564, 95.7157185843244, 94.39429399309039, 93.91667064686122, 93.91667064686122, 92.92958239798762, 91.62407858496124, 93.26391874034803, 93.26391874034803, 93.96443298148414, 92.05393959656747, 90.95540590024041, 90.95540590024041, 91.14645523873207, 91.84696947986818, 91.1623760169397, 91.1623760169397, 90.31857477193486, 90.84396045278693, 91.11461368231679, 91.11461368231679, 90.81211889637166, 91.28974224260081, 91.22605912977026, 91.22605912977026]",93.72301134472892,2.8982173999538645
reward-effort-pgACC-TUS,R88533/RE002,testing,0,2024-07-05_11h06.53.906,None,333,28,f,1.916839599609375,2,6,avoid,normal,reward,0.29000000000000004,90,-60,-55,reject,1.4001792999915779,None,-55,-55,"null",None,None
reward-effort-pgACC-TUS,R88533/RE002,testing,0,2024-07-05_11h06.53.906,None,333,28,f,1.916839599609375,3,7,avoid,shifted,heart,0.398,80,-40,-40,reject,13.677923800016288,None,-40,-95,"null",None,None
reward-effort-pgACC-TUS,R88533/RE002,testing,0,2024-07-05_11h06.53.906,None,333,28,f,1.916839599609375,3,8,avoid,shifted,heart,0.6579999999999999,90,-80,-81,reject,3.7200949999969453,None,-81,-176,"null",None,None
reward-effort-pgACC-TUS,R88533/RE002,testing,0,2024-07-05_11h06.53.906,None,333,28,f,1.916839599609375,3,9,avoid,shifted,heart,0.246,95,-40,-36,reject,4.600252799980808,None,-36,-212,"null",None,None
reward-effort-pgACC-TUS,R88533/RE002,testing,0,2024-07-05_11h06.53.906,None,333,28,f,1.916839599609375,4,10,avoid,normal,heart,0.5800000000000001,55,-20,-20,accept,5.956046699953731,success,0,-212,"[1.8627310502937384, 2.133384279823598, 2.133384279823598, 2.133384279823598, 2.6428491824680393, 3.215997197943035, 3.215997197943035, 3.9165114390791422, 4.617025680215249, 5.3493814777666335, 5.92252949324163, 5.92252949324163, 7.339478753721481, 9.663912372036746, 12.927671904602697, 12.927671904602697, 14.424225056120743, 17.401410580949197, 21.270159685405424, 25.632452914298455, 25.632452914298455, 29.405677349508846, 32.19181353584563, 35.503335403034505, 35.503335403034505, 37.65264046106574, 39.945232522965725, 43.065705051662924, 43.065705051662924, 45.48566333922402, 47.38023594593304, 48.606135867921225, 48.606135867921225, 50.182292910477464, 51.01017337727468, 51.3445097196351, 51.3445097196351, 52.618171976246195, 53.573418668704534, 54.48090302653994, 54.48090302653994, 55.643119835697576, 56.3913964114566, 57.10783143080034, 57.74466255910588, 57.74466255910588, 57.74466255910588, 57.77650411552116, 57.82426645014408, 57.82426645014408, 57.93571189759755, 58.3655729092038, 59.20937415420866, 59.20937415420866, 60.196462403082265, 61.088025982710036, 61.629332441769755, 61.629332441769755, 62.21840123545239, 62.48905446498225, 62.759707694512116, 62.99851936762669, 62.99851936762669, 63.141806371495434, 62.88707392017322, 62.409450573944056, 62.409450573944056, 61.915906449507254, 61.454203881485725, 61.19947143016351, 61.19947143016351, 61.088025982710036, 61.04026364808712, 61.056184426294756, 61.056184426294756, 61.07210520450239, 60.88105586601073, 60.64224419289614, 60.562640301857954, 60.562640301857954, 60.5785610800656, 60.48303641081976, 60.61040263648088, 60.61040263648088, 61.119867539125316, 61.486045437901005, 61.72485711101559, 61.72485711101559, 62.059193453376004, 62.377609017528776, 62.345767461113496, 62.18655967903711, 62.18655967903711, 62.26616357007531, 62.26616357007531, 62.18655967903711, 62.18655967903711, 62.32984668290587, 62.53681679960516, 62.807470029135025, 62.807470029135025, 62.95075703300377]",60.900630593315206,1.6660046000033617
reward-effort-pgACC-TUS,R88533/RE002,testing,0,2024-07-05_11h06.53.906,None,333,28,f,1.916839599609375,4,11,avoid,normal,heart,0.33999999999999997,90,-40,-40,accept,2.6705282000475563,success,0,-212,"[0.6527519065131904, 0.6368311283055516, 0.6368311283055516, 0.6368311283055516, 0.6527519065131904, 0.6368311283055516, 0.6368311283055516, 0.6368311283055516, 0.6209103500979127, 0.6209103500979127, 0.6209103500979127, 0.6368311283055516, 0.9393259142506886, 1.9900972759548485, 1.9900972759548485, 3.741382878795115, 5.285698364936079, 7.864864434573563, 7.864864434573563, 11.829138208275621, 14.774482176688796, 18.05416248746239, 18.05416248746239, 23.594593303720686, 29.533043575169955, 33.14706022830396, 33.14706022830396, 37.68448201748102, 43.957268631290695, 48.383244973014286, 50.437025361799684, 50.437025361799684, 53.12763687889064, 55.56351594465937, 57.56953399882187, 57.56953399882187, 58.63622613873366, 59.68699750043782, 61.83630255846906, 61.83630255846906, 63.39653882281766, 65.3388737641496, 67.58370349142666, 67.58370349142666, 69.78077088408081, 73.7132031013676, 76.10131983251341, 76.10131983251341, 76.94512107751827, 76.8336756300648, 76.0535574978905, 76.0535574978905, 75.78290426836064, 76.86551718648008, 77.1680119724252, 77.1680119724252, 77.1680119724252, 77.6933976532773, 77.86852621356132, 77.82076387893841, 77.82076387893841, 77.40682364553979, 76.88143796468772, 77.6137937622391, 77.6137937622391, 79.20587158300297, 80.78202862555922, 83.21790769132795, 83.21790769132795, 84.93735173775295, 85.76523220455016, 85.65378675709668, 85.65378675709668, 85.11248029803696, 85.22392574549043, 85.23984652369808, 85.23984652369808, 85.09655951982933, 85.57418286605849, 85.87667765200364, 85.87667765200364, 85.79707376096543, 85.97220232124945, 85.92443998662654, 85.92443998662654, 85.4149750839821, 85.35129197115155, 85.73339064813487, 85.82891531738072, 85.82891531738072, 86.16325165974112, 86.89560745729251, 88.74241772937862, 88.74241772937862, 90.36633710655776, 90.28673321551958, 90.23897088089666, 90.23897088089666, 90.23897088089666, 91.38526691184666, 91.87881103628345, 91.87881103628345, 92.78629539411887, 93.39128496600914, 94.4420563277133, 94.4420563277133, 95.30177835092579, 95.66795624970148, 95.66795624970148, 95.66795624970148, 95.38138224196399, 94.8878381175272, 94.9356004521501, 94.9356004521501, 95.47690691120982, 95.15849134705704, 94.95152123035774, 94.95152123035774, 95.06296667781122, 95.30177835092579, 94.4420563277133, 94.4420563277133, 93.10471095827164, 92.78629539411887, 91.87881103628345, 91.87881103628345, 90.52554488863416, 90.43002021938833, 90.90764356561749, 90.90764356561749, 90.70067344891818, 90.79619811816401, 91.1623760169397, 91.1623760169397, 90.23897088089666, 88.18519049211126, 88.10558660107306, 88.10558660107306, 87.6279632548439, 87.37323080352168, 87.75532948050501, 87.75532948050501, 89.79318909108277, 91.86289025807581, 93.2957602967633, 93.2957602967633, 93.83706675582303, 94.42613554950566, 94.17140309818343, 94.17140309818343, 93.31168107497095, 93.18431484930983, 92.42011749534316, 92.42011749534316, 91.8151279234529, 91.56039547213068, 91.57631625033832, 91.57631625033832, 91.63999936316887, 91.56039547213068, 91.84696947986818, 91.84696947986818, 93.31168107497095, 94.12364076356053, 94.1554823199758, 94.1554823199758, 94.20324465459872, 93.661938195539, 93.40720574421678, 93.40720574421678, 93.31168107497095, 93.02510706723345, 92.35643438251262, 92.35643438251262, 92.35643438251262, 93.12063173647928, 94.4420563277133, 94.56942255337441, 94.56942255337441, 94.96744200856538, 95.7157185843244, 95.7157185843244, 95.90676792281607, 96.0818964831001, 96.19334193055357, 96.2092627087612, 96.2092627087612, 96.35254971262995, 95.97045103564662, 95.97045103564662, 95.15849134705704, 95.39730302017163, 95.68387702790912, 95.49282768941745, 95.49282768941745, 95.36546146375635, 94.69678877903553, 92.73853305949595, 92.73853305949595, 91.87881103628345, 91.75144481062235, 91.43302924646957, 91.43302924646957, 91.56039547213068]",93.71257149016657,3.3650932000018656
reward-effort-pgACC-TUS,R88533/RE002,testing,0,2024-07-05_11h06.53.906,None,333,28,f,1.916839599609375,4,12,avoid,normal,heart,0.372,90,-60,-55,reject,1.9297102999989875,None,-55,-267,"null",None,None
reward-effort-pgACC-TUS,R88533/RE002,testing,0,2024-07-05_11h06.53.906,None,333,28,f,1.916839599609375,5,13,approach,shifted,reward,0.622,85,80,80,accept,1.5322626999695785,success,80,-187,"[4.266768559647196, 4.266768559647196, 5.970291827864546, 5.970291827864546, 11.271910971008262, 11.271910971008262, 14.440145834328384, 17.624301475856143, 23.053286844660967, 23.053286844660967, 26.078234704112337, 28.593717660919264, 31.777873302447023, 33.720208243778956, 33.720208243778956, 36.729235325022685, 39.372084507490726, 42.76321026571779, 42.76321026571779, 47.348394389517765, 49.16336310518858, 53.27092388275939, 53.27092388275939, 57.15559376542325, 58.68398847335657, 60.10093773383643, 60.10093773383643, 62.059193453376004, 64.11297384216141, 65.84833866679404, 67.91803983378708, 69.30314753785166, 69.30314753785166, 70.9270669150308, 74.50924201174954, 76.4674977312891, 76.4674977312891, 78.66456512394325, 79.93822738055437, 81.25965197178839, 81.25965197178839, 81.8009584308481, 83.01093757462866, 83.40895702981962, 83.40895702981962, 83.48856092085781, 83.47264014265016, 83.48856092085781, 83.48856092085781, 84.33236216586266, 84.80998551209183, 84.95327251596058, 84.95327251596058, 85.73339064813487, 86.70455811880085, 87.56428014201335, 87.56428014201335, 90.68475267071054, 93.13655251468693, 95.0152043431883, 96.19334193055357, 96.19334193055357, 97.0689847319737, 98.3426469885848, 100.07801181321743, 100.07801181321743, 100.8422091671841, 102.1636337584181, 102.59349477002435, 102.59349477002435, 101.90890130709589, 101.08102084029866, 100.98549617105283, 100.85812994539174, 100.85812994539174, 100.69892216331536, 99.31381445925076, 97.78541975131745, 97.78541975131745, 96.68688605499037, 94.99928356498066, 94.34653165846747, 94.34653165846747, 93.59825508270845, 92.29275126968206, 91.1623760169397, 88.99715018070083, 88.99715018070083, 87.10257757399181, 86.99113212653835, 86.76824123163141, 86.76824123163141, 88.59913072550987, 91.56039547213068, 92.84997850694941, 92.84997850694941, 94.56942255337441, 96.0818964831001, 96.59136138574453, 97.43516263074939, 97.43516263074939, 98.04015220263966, 97.54660807820287, 96.83017305885912, 96.83017305885912, 96.83017305885912, 96.81425228065149, 96.70280683319801, 96.70280683319801, 96.67096527678272, 95.97045103564662, 95.66795624970148, 95.66795624970148, 95.66795624970148, 94.60126410978968, 94.3624524366751, 95.20625368167997, 95.20625368167997, 95.74756014073968, 95.84308480998551, 96.92569772810495, 96.92569772810495, 99.34565601566605, 100.17353648246325, 100.14169492604799, 100.14169492604799, 99.6163092451959, 99.66407157981882, 99.56854691057299, 99.56854691057299, 99.23421056821257, 98.37448854500008, 98.37448854500008, 98.37448854500008, 97.27595484867301, 96.44807438187578, 96.70280683319801, 96.70280683319801, 97.54660807820287, 97.0689847319737, 96.46399516008343, 96.70280683319801, 96.70280683319801, 96.68688605499037, 96.44807438187578, 96.30478737800703, 96.30478737800703, 96.01821337026954, 95.68387702790912, 94.63310566620497, 94.63310566620497, 92.3086720478897, 86.91152823550014, 84.96919329416822, 84.96919329416822, 84.73038162105364, 84.3482829440703, 83.28159080415851, 83.28159080415851, 83.18606613491268, 84.3482829440703, 84.9214309595453, 84.9214309595453, 85.27168808011336, 85.92443998662654, 86.35430099823279, 86.35430099823279, 86.37022177644043, 87.00705290474599, 88.99715018070083, 88.99715018070083, 90.60514877967235, 91.68776169779179, 92.7226122812883, 92.7226122812883, 94.09179920714524, 95.39730302017163, 96.03413414847718, 96.03413414847718, 96.22518348696885, 96.28886659979939, 96.59136138574453, 96.59136138574453, 96.63912372036745, 96.68688605499037, 95.95453025743899, 95.95453025743899, 94.95152123035774, 94.53758099695914, 94.58534333158205, 94.58534333158205, 94.4420563277133, 93.24799796214039, 92.83405772874178, 94.6490264444126, 94.6490264444126, 95.58835235866329, 95.9226887010237, 95.3495406855487, 95.3495406855487, 94.66494722262024, 94.72863033545079, 94.50573944054386, 94.50573944054386, 94.3146901020522, 93.85298753403066, 93.13655251468693, 93.13655251468693, 92.92958239798762, 93.53457196987789, 94.12364076356053, 94.29876932384454, 94.29876932384454, 94.33061088025983, 93.64601741733136, 93.35944340959385, 93.35944340959385, 92.4678798299661, 91.49671235930012, 91.11461368231679, 91.11461368231679, 90.09568387702791, 91.13053446052443, 93.20023562751747, 93.20023562751747, 93.59825508270845, 93.96443298148414, 94.71270955724316, 94.71270955724316, 94.74455111365843, 93.59825508270845, 92.49972138638137, 92.49972138638137, 93.39128496600914, 93.64601741733136, 92.03801881835984, 92.03801881835984, 92.18130582222858, 92.81813695053415, 93.91667064686122, 95.28585757271816, 95.28585757271816, 95.69979780611676, 97.08490551018134, 97.05306395376606, 97.05306395376606, 96.0022925920619, 95.95453025743899, 96.67096527678272, 96.67096527678272, 97.10082628838897, 97.72173663848689, 98.37448854500008, 100.01432870038687, 100.01432870038687, 101.1287831749216, 101.86113897247297, 102.70494021747783, 102.70494021747783, 102.80046488672366, 102.22731687124866, 102.06810908917228, 102.06810908917228, 102.17955453662574, 102.08402986737993, 101.76561430322715, 102.30692076228686, 102.30692076228686, 102.41836620974034, 100.96957539284521, 100.38050659916257, 100.38050659916257, 99.80735858368757, 97.43516263074939, 96.63912372036745, 96.63912372036745, 97.11674706659662, 97.03714317555843, 96.09781726130772, 96.16150037413828, 96.16150037413828, 96.24110426517647, 96.17742115234593, 95.82716403177788, 95.82716403177788, 95.36546146375635, 93.90074986865358, 91.06685134769388, 90.73251500533345, 90.73251500533345, 90.52554488863416, 89.2678034102307, 88.99715018070083, 88.99715018070083, 90.66883189250291, 93.48680963525497, 93.83706675582303, 93.83706675582303, 94.4898186623362, 95.38138224196399, 96.0022925920619, 96.0022925920619, 96.09781726130772, 96.86201461527439, 96.9893808409355, 96.95753928452022, 96.95753928452022, 98.37448854500008, 100.01432870038687, 99.88696247472576, 99.88696247472576, 99.72775469264937, 99.75959624906466, 100.6830013851077, 100.6830013851077, 100.41234815557785, 99.23421056821257, 98.47001321424591, 96.92569772810495, 96.92569772810495, 97.18043017942716, 98.40633010141536, 97.97646908980911, 97.97646908980911, 95.85900558819314, 95.42914457658689, 96.89385617168968, 96.89385617168968, 96.87793539348203, 95.7953224753626, 96.46399516008343, 96.46399516008343, 97.59437041282578, 97.54660807820287, 97.24411329225772, 97.24411329225772, 97.32371718329593, 97.51476652178759, 98.5018547706612, 98.5018547706612, 99.29789368104312, 100.34866504274729, 100.28498192991673, 100.28498192991673, 99.32973523745841, 100.14169492604799, 100.82628838897645, 100.76260527614589, 100.76260527614589, 100.79444683256118, 100.92181305822227, 100.6352390504848, 100.6352390504848, 100.33274426453964, 100.31682348633201, 100.10985336963272, 100.10985336963272]",98.18497992698013,5.93159629998263
reward-effort-pgACC-TUS,R88533/RE002,testing,0,2024-07-05_11h06.53.906,None,333,28,f,1.916839599609375,5,14,approach,shifted,reward,0.634,70,40,51,accept,27.291975200001616,success,51,-136,"[0.23881167311458185, 0.23881167311458185, 0.19104933849166547, 0.19104933849166547, 0.17512856028402668, 0.17512856028402668, 0.17512856028402668, 0.1432870038687491, 0.1432870038687491, 0.1273662256611103, 0.1273662256611103, 0.1592077820763879, 0.1592077820763879, 0.1432870038687491, 0.1592077820763879, 0.19104933849166547, 0.1592077820763879, 0.1592077820763879, 0.1592077820763879, 0.1432870038687491, 0.1432870038687491, 0.1432870038687491, 0.3184155641527758, 0.3980194551909697, 0.6209103500979127, 0.6209103500979127, 0.907484357835411, 1.2418207001958255, 1.5283947079333238, 1.5283947079333238, 1.9423349413319322, 2.3721959529381795, 3.1682348633201194, 3.1682348633201194, 4.855837353329831, 8.135517664103421, 15.666045756316569, 15.666045756316569, 23.658276416551242, 31.45945773829425, 41.39402333986085, 48.90863065386636, 48.90863065386636, 54.9585263727691, 60.132779290251705, 62.88707392017322, 62.88707392017322, 65.48216076801833, 68.2205346197322, 69.22354364681345, 69.22354364681345, 70.5131266816322, 75.65553804269952, 77.97997166101479, 77.97997166101479, 80.06559360621547, 80.94123640763561, 81.43478053207241, 81.43478053207241, 82.5810765630224, 82.67660123226823, 81.84872076547101, 81.84872076547101, 81.29149352820366, 81.16412730254254, 81.11636496791962, 80.57505850885991, 80.57505850885991, 80.25664294470714, 80.08151438442312, 79.42876247790991, 79.42876247790991, 79.44468325611756, 79.82678193310089, 79.85862348951616, 79.85862348951616, 79.36507936507937, 81.100444189712, 83.23382846953558, 83.23382846953558, 82.93133368359045, 82.45371033736129, 83.63184792472657, 83.63184792472657, 84.79406473388418, 84.77814395567655, 85.62194520068141, 85.62194520068141, 88.5672891690946, 90.63699033608764, 90.58922800146472, 90.58922800146472, 90.41409944118068, 90.2548916591043, 90.09568387702791, 90.09568387702791, 89.84095142570568, 89.58621897438347, 89.23596185381541, 89.23596185381541, 87.30954769069112, 86.0677269904953, 84.30052060944739, 84.30052060944739, 84.10947127095572, 84.23683749661683, 84.17315438378627, 84.47564916973141, 84.47564916973141, 84.60301539539252, 84.84182706850711, 85.5423413096432, 85.5423413096432, 85.60602442247377, 85.19208418907516, 85.2080049672828, 85.2080049672828]",84.20114413902229,1.9143956000334583
reward-effort-pgACC-TUS,R88533/RE002,testing,0,2024-07-05_11h06.53.906,None,333,28,f,1.916839599609375,5,15,approach,shifted,reward,0.614,60,20,20,accept,1.0022928999969736,success,20,-116,"[1.8308894938784608, 1.8308894938784608, 1.8308894938784608, 1.8308894938784608, 1.7672063810479057, 1.7672063810479057, 1.735364824632628, 1.735364824632628, 1.751285602840267, 1.7035232682173507, 1.7035232682173507, 1.7035232682173507, 1.6876024900097117, 1.671681711802073, 1.751285602840267, 1.751285602840267, 1.7990479374631834, 1.9104933849166548, 2.197067392654153, 2.197067392654153, 2.435879065768735, 2.658769960675678, 2.929423190205537, 2.929423190205537, 3.1841556415277577, 3.486650427472895, 3.7891452134180317, 3.7891452134180317, 4.2986101160624735, 4.808075018706914, 5.572272372673576, 5.572272372673576, 8.087755329480505, 12.37044466733534, 15.968540542261705, 21.954753148333893, 21.954753148333893, 26.842432058078998, 30.90223050102689, 33.33810956679562, 33.33810956679562, 37.795927464934486, 41.202974001369185, 46.20209835856777, 46.20209835856777, 49.24296699622678, 52.570409641623286, 56.88494053589339, 56.88494053589339, 58.90687936826352, 59.94172995176004, 61.39052076865518, 61.39052076865518, 62.68010380347392, 65.08414131282737, 67.07423858878222, 67.07423858878222, 68.9528904172836, 70.81562146757734, 72.42362006654885, 72.78979796532454, 72.78979796532454, 72.72611485249399, 74.74805368486412, 76.86551718648008, 76.86551718648008, 77.08840808138702, 76.89735874289535, 76.97696263393354, 76.97696263393354, 76.80183407364952, 77.34314053270924, 78.05957555205299, 78.05957555205299, 78.42575345082867, 78.21878333412937, 77.70931843148493, 77.70931843148493, 77.51826909299326, 77.1680119724252, 76.29236917100508, 76.29236917100508, 75.17791469647037, 74.39779656429606, 72.35993695371829, 72.35993695371829, 72.24849150626483, 71.51613570871345, 71.53205648692108, 71.2136409227683, 71.2136409227683, 70.81562146757734, 70.49720590342457, 70.54496823804747, 70.54496823804747, 71.10219547531483, 71.81863049465858, 72.50322395758705, 72.50322395758705, 72.24849150626483, 73.1400550858926, 74.23858878221967, 74.23858878221967, 74.42963812071135, 75.57593415166133, 76.64262629157314, 76.64262629157314, 77.83668465714604, 78.4735157854516, 78.6008820111127, 78.6008820111127, 78.53719889828214, 78.55311967648979, 78.52127812007451, 78.52127812007451, 78.09141710846826, 77.31129897629397, 76.59486395695022, 76.06947827609814]",75.12754239820687,1.9488651000428945
reward-effort-pgACC-TUS,R88533/RE002,testing,0,2024-07-05_11h06.53.906,None,333,28,f,1.916839599609375,6,16,approach,normal,reward,0.654,100,80,72,accept,2.7278999999980442,success,72,-44,"[2.6906115170909555, 3.4229673146423396, 3.4229673146423396, 4.553342567384694, 5.65187626371177, 5.65187626371177, 7.403161866552037, 13.039117352056168, 13.039117352056168, 16.17551065896101, 22.59158427663944, 29.246469567432452, 34.30927703746159, 34.30927703746159, 38.71933260097754, 44.498575090350414, 49.05191765773511, 49.05191765773511, 54.71971469965452, 59.03424559392463, 63.316934931779464, 63.316934931779464, 66.6602983553836, 69.9399786661572, 72.13704605881135, 76.40381461845855, 76.40381461845855, 80.11335594083839, 81.41885975386477, 83.01093757462866, 83.01093757462866, 83.72737259397239, 83.99802582350226, 84.49156994793906, 84.49156994793906, 85.16024263265989, 85.287608858321, 85.06471796341405, 85.06471796341405, 84.714460842846, 84.12539204916337, 84.14131282737101, 84.14131282737101, 84.73038162105364, 85.71746986992724, 89.07675407173903, 93.56641352629318, 93.56641352629318, 96.09781726130772, 99.28197290283549, 101.49496107369728, 101.49496107369728, 102.3228415404945, 102.75270255210074, 102.72086099568547, 102.72086099568547, 102.75270255210074, 103.69202846635145, 104.8224037190938, 104.8224037190938, 106.20751142315837, 106.86026332967155, 106.796580216841, 106.49408543089586, 106.49408543089586, 106.54184776551878, 107.14683733740907, 107.22644122844724, 107.22644122844724, 107.22644122844724, 108.00655936062155, 108.26129181194378, 108.26129181194378, 108.21352947732086, 108.67523204534237, 109.53495406855487, 108.7707567145882, 108.7707567145882, 108.51602426326599, 108.5956281543042, 108.54786581968125, 108.54786581968125, 108.1498463644903, 108.13392558628266, 108.29313336835904, 108.29313336835904, 108.50010348505835, 108.64339048892711, 108.91404371845697, 108.91404371845697, 109.2961423954403, 109.61455795959307, 109.53495406855487, 109.53495406855487, 109.51903329034722, 109.15285539157153, 109.08917227874097, 109.08917227874097, 107.7359061310917, 106.55776854372643, 106.70105554759517, 107.09907500278612, 107.09907500278612, 107.08315422457851, 107.09907500278612, 107.06723344637086, 107.06723344637086, 107.35380745410836, 107.94287624779099, 107.4970944579771, 107.4970944579771, 107.52893601439237]",107.16969135773937,1.8483894999953918
reward-effort-pgACC-TUS,R88533/RE002,testing,0,2024-07-05_11h06.53.906,None,333,28,f,1.916839599609375,6,17,approach,normal,reward,0.6579999999999999,60,100,98,accept,1.598783299967181,success,98,54,"[1.3851077040645747, 1.353266147649297, 1.353266147649297, 1.353266147649297, 1.369186925856936, 1.369186925856936, 1.3851077040645747, 1.353266147649297, 1.353266147649297, 1.369186925856936, 1.369186925856936, 1.369186925856936, 1.353266147649297, 1.353266147649297, 1.369186925856936, 1.369186925856936, 1.353266147649297, 1.3851077040645747, 1.369186925856936, 1.369186925856936, 1.3851077040645747, 1.4487908168951298, 1.8945726067090158, 3.725462100587477, 3.725462100587477, 7.3553995319291205, 12.37044466733534, 15.809332760185319, 15.809332760185319, 24.788651669293596, 30.329082485551893, 34.30927703746159, 34.30927703746159, 39.57905462419003, 45.53342567384694, 48.51061119867539, 48.51061119867539, 49.609144895002466, 53.796309563611466, 54.337616022671185, 54.67195236503161, 54.67195236503161, 54.91076403814618, 56.37547563324895, 58.20636512712741, 58.20636512712741, 59.00240403750935, 60.46711563261212, 61.74077788922323, 61.74077788922323, 63.52390504847877, 64.36770629348362, 65.64136855009473, 65.64136855009473, 66.81950613746, 68.31605928897805, 69.55787998917387, 69.55787998917387, 69.63748388021207, 70.05142411361066, 71.05443314069191, 71.05443314069191, 71.02259158427664, 70.73601757653914, 70.5131266816322, 69.63748388021207, 69.63748388021207, 68.53895018388498, 68.52302940567735, 68.02948528124054, 68.02948528124054, 67.34489181831208, 66.96279314132875, 66.58069446434541, 66.58069446434541, 66.7399022464218, 67.87027749916416, 68.10908917227874, 68.10908917227874, 68.14093072869402, 68.7936826352072, 68.84144496983012, 68.84144496983012, 69.04841508652943, 69.5260384327586, 69.78077088408081, 69.78077088408081, 69.70116699304262, 69.57380076738151, 70.40168123417872, 71.0862746971072, 71.0862746971072, 71.89823438569677, 71.81863049465858, 70.91114613682316, 70.91114613682316, 70.30615656493289, 69.73300854945789, 69.49419687634332, 69.49419687634332, 69.3668306506822, 69.25538520322874, 69.06433586473707, 69.06433586473707, 68.63447485313083, 68.47526707105443, 67.80659438633361, 66.77174380283708, 66.77174380283708]",68.49221499624319,1.7964494000189006
reward-effort-pgACC-TUS,R88533/RE002,testing,0,2024-07-05_11h06.53.906,None,333,28,f,1.916839599609375,6,18,approach,normal,reward,0.744,85,60,55,accept,2.0788484000368044,success,55,109,"[4.20308544681664, 5.842925602203436, 5.842925602203436, 7.880785212781201, 7.880785212781201, 10.635079842702712, 10.635079842702712, 13.00727579564089, 14.408304277913103, 17.274044355288087, 17.274044355288087, 20.79253633917626, 24.916017894954706, 30.185795481683144, 30.185795481683144, 33.720208243778956, 37.12725478021366, 40.199964974287944, 40.199964974287944, 43.989110187705975, 48.44692808584484, 50.54847080925315, 54.92668481635382, 54.92668481635382, 58.68398847335657, 60.41935329798921, 61.66117399818503, 61.66117399818503, 63.30101415357182, 66.03938800528569, 67.74291127350305, 67.74291127350305, 68.23645539793985, 69.11209819935998, 69.66932543662733, 69.66932543662733, 70.62457212908568, 71.38876948305233, 72.47138240117177, 72.47138240117177, 75.17791469647037, 75.43264714779258, 76.84959640827243, 76.84959640827243, 77.93220932639187, 78.42575345082867, 80.35216761395297, 80.35216761395297, 81.67359220518698, 82.99501679642101, 83.56816481189601, 83.56816481189601, 84.26867905303212, 85.31945041473628, 85.76523220455016, 85.76523220455016, 85.71746986992724, 85.51049975322795, 85.44681664039739, 85.44681664039739, 85.47865819681266, 86.38614255464807, 87.81901259333557, 87.81901259333557, 89.22004107560778, 89.79318909108277, 90.98724745665568, 90.98724745665568, 92.29275126968206, 94.33061088025983, 95.65203547149385, 95.65203547149385, 96.55951982932926, 96.55951982932926, 96.32070815621468, 96.32070815621468, 95.7953224753626, 94.13956154176816, 93.91667064686122, 93.91667064686122, 94.47389788412858, 94.0281160943147, 93.15247329289456, 93.15247329289456, 93.61417586091608, 93.5823343045008, 92.0220980401522, 92.0220980401522, 91.57631625033832, 91.71960325420706, 91.62407858496124, 91.62407858496124, 90.95540590024041, 91.38526691184666, 91.41710846826193, 91.41710846826193, 88.64689306013278, 87.40507235993695, 87.91453726258139, 88.18519049211126, 88.18519049211126, 90.39817866297305, 92.26090971326678, 92.26090971326678, 92.92958239798762, 93.51865119167024, 94.63310566620497, 94.63310566620497, 95.60427313687093, 95.3495406855487, 94.85599656111191, 94.85599656111191, 94.80823422648899, 94.26692776742928, 93.91667064686122]",91.63409326802737,1.8813811999862082
reward-effort-pgACC-TUS,R88533/RE002,testing,0,2024-07-05_11h06.53.906,None,333,28,f,1.916839599609375,7,19,approach,shifted,heart,0.706,85,80,80,accept,1.2137019000365399,failure,0,109,"[0.4776233462291637, 0.4617025680215249, 0.4617025680215249, 0.4776233462291637, 0.4776233462291637, 0.4776233462291637, 0.4776233462291637, 0.4776233462291637, 0.4776233462291637, 0.4776233462291637, 0.5094649026444412, 0.5572272372673577, 0.5413064590597189, 0.5413064590597189, 0.5890687936826352, 0.604989571890274, 0.5572272372673577, 0.5731480154749964, 0.5731480154749964, 0.5890687936826352, 0.5890687936826352, 0.604989571890274, 0.604989571890274, 0.5890687936826352, 0.604989571890274, 0.6368311283055516, 0.6368311283055516, 0.6209103500979127, 0.6527519065131904, 0.6527519065131904, 0.6527519065131904, 0.6368311283055516, 0.604989571890274, 0.6368311283055516, 0.6368311283055516, 0.6209103500979127, 0.6368311283055516, 0.5890687936826352, 0.5890687936826352, 0.5890687936826352, 0.604989571890274, 0.5731480154749964, 0.5731480154749964, 0.5890687936826352, 0.6686726847208292, 0.6686726847208292, 1.1781375873652704, 2.133384279823598, 2.133384279823598, 3.502571205680534, 3.9005906608715035, 3.964273773702059, 3.964273773702059, 3.8846698826638644, 3.5344127620958115, 3.1682348633201194, 2.881660855582621, 2.881660855582621, 2.6269284042604, 2.260750505484708, 1.9741764977472098, 1.9741764977472098, 1.6876024900097117, 1.4647115951027685, 1.2577414784034644, 1.2577414784034644, 1.2258999219881868, 1.2418207001958255, 1.1940583655729091, 1.1940583655729091, 1.1940583655729091, 1.2577414784034644, 2.021938832370126, 2.021938832370126, 3.6617789877569216, 6.240945057394406, 6.240945057394406, 11.478881087707567, 15.65012497810893, 24.104058206365128, 24.104058206365128, 30.88630972281925, 30.88630972281925, 47.82601773574692, 58.078998901466306, 58.078998901466306, 62.632341468850996, 67.58370349142666, 67.58370349142666, 68.98473197369887, 71.22956170097594, 71.22956170097594, 75.81474582477593, 79.38100014328701, 81.38701819744949, 83.18606613491268, 83.18606613491268, 85.12840107624461, 86.70455811880085, 88.18519049211126, 91.83104870166054, 93.661938195539, 93.661938195539, 94.52166021875149, 95.20625368167997, 95.20625368167997, 95.77940169715495, 96.14557959593066, 96.67096527678272, 96.67096527678272, 96.63912372036745, 95.7157185843244, 94.68086800082787, 94.68086800082787, 95.07888745601885, 95.81124325357024, 95.9226887010237, 95.82716403177788, 95.82716403177788, 94.66494722262024, 93.69377975195428, 92.16538504402095, 92.16538504402095, 91.67184091958414, 90.97132667844804, 88.98122940249318, 87.27770613427585, 87.27770613427585, 87.19810224323766, 86.80008278804668, 86.14733088153349, 86.14733088153349, 85.33537119294391, 85.0806387416217, 84.714460842846, 84.714460842846, 84.53933228256197, 84.57117383897726, 84.4278868351085, 84.4278868351085, 83.80697648501058, 83.7751349285953, 83.8547388196335, 83.8547388196335, 83.80697648501058, 83.37711547340434, 83.26567002595087, 83.32935313878143, 83.32935313878143, 82.5810765630224, 81.65767142697935, 81.45070131028005, 81.45070131028005, 81.25965197178839, 81.19596885895783, 81.46662208848768, 81.46662208848768, 82.24674022066199, 83.01093757462866, 83.05869990925157, 83.05869990925157, 83.09054146566685, 83.3611946951967, 83.56816481189601, 83.61592714651891, 83.61592714651891, 83.98210504529462, 84.6348569518078, 85.17616341086752, 85.17616341086752, 85.03287640699877, 84.73038162105364, 85.11248029803696, 85.11248029803696, 85.30352963652862, 84.73038162105364, 84.04578815812516, 84.04578815812516, 83.75921415038768, 83.75921415038768, 83.58408559010364, 83.4407985862349, 83.4407985862349, 83.34527391698906, 83.39303625161197, 84.31644138765503, 84.76222317746891, 84.76222317746891, 84.90551018133766, 85.14432185445224, 86.52942955851682, 89.04491251532374, 89.04491251532374, 90.38225788476541, 90.87580200920222, 94.79231344828135, 94.79231344828135, 97.57844963461814, 98.9157950040598, 100.3964273773702, 100.3964273773702, 103.37361290219866, 105.2841062871153, 105.36371017815351, 106.06422441928962, 106.06422441928962, 106.04830364108197, 106.86026332967155, 107.43341134514654, 107.43341134514654, 107.62446068363822, 107.9110346913757, 107.71998535288405, 107.71998535288405, 107.57669834901532, 107.4493321233542, 107.51301523618476, 107.76774768750697, 107.76774768750697, 107.25828278486252, 106.11198675391253, 105.49107640381462, 105.49107640381462, 103.03927655983824, 100.74668449793826, 99.50486379774244, 99.50486379774244, 97.22819251405008, 95.65203547149385, 95.07888745601885, 95.15849134705704, 95.15849134705704, 95.12664979064176, 94.4420563277133, 93.64601741733136, 92.10170193119039, 92.10170193119039, 90.92356434382512, 89.14043718456958, 88.74241772937862, 88.74241772937862, 89.52253586155291, 91.09869290410916, 92.05393959656747, 92.05393959656747, 93.43904730063205, 95.49282768941745, 96.9097769498973, 96.9097769498973, 96.95753928452022, 96.33662893442232, 96.5754406075369, 98.64514177452995, 98.64514177452995, 99.04316122972091, 98.53369632707647, 98.02423142443203, 98.02423142443203, 97.68989508207162, 97.32371718329593, 96.76648994602857, 96.76648994602857, 96.70280683319801, 97.68989508207162, 98.96355733868272, 98.96355733868272, 99.21828979000493, 99.80735858368757, 100.31682348633201, 101.1287831749216, 101.1287831749216, 101.11286239671395, 101.39943640445146, 101.47904029548964, 101.47904029548964, 101.76561430322715, 102.09995064558757, 102.21139609304102, 102.21139609304102, 101.49496107369728, 101.2561494005827, 100.20537803887855, 100.20537803887855, 98.58145866169939, 95.84308480998551, 87.51651780739043, 83.15422457849739, 83.15422457849739, 80.62282084348283, 78.96705990988839, 79.49244559074047, 79.49244559074047, 82.0875324385856, 83.74329337218003, 85.70154909171961, 86.81600356625432, 86.81600356625432, 86.54535033672445, 86.16325165974112, 86.16325165974112, 86.16325165974112, 85.57418286605849, 85.14432185445224, 83.40895702981962, 82.72436356689114, 82.72436356689114, 82.70844278868351, 82.85172979255226, 83.21790769132795, 83.21790769132795, 83.29751158236614, 84.93735173775295, 85.47865819681266, 85.47865819681266, 85.43089586218974, 86.08364776870293, 86.73639967521612, 87.27770613427585, 87.27770613427585, 87.93045804078903, 90.43002021938833, 92.8022161723265, 92.8022161723265, 94.25100698922164, 95.42914457658689, 96.71872761140564, 96.71872761140564, 98.07199375905495, 98.3426469885848, 99.72775469264937, 99.72775469264937, 102.13179220200284, 103.24624667653754, 104.34478037286463, 104.34478037286463, 105.15674006145422, 104.59951282418685, 103.81939469201255, 103.81939469201255, 103.83531547022018, 103.86715702663547, 103.80347391380491, 103.85123624842782, 103.85123624842782, 103.27808823295284, 102.52981165719382, 101.36759484803616, 101.36759484803616, 100.1894572606709, 98.61330021811466, 97.19635095763482, 97.19635095763482, 95.93860947923135, 94.82415500469664, 93.80522519940774, 93.80522519940774, 91.62407858496124, 86.81600356625432, 83.80697648501058, 83.80697648501058, 82.24674022066199, 82.34226488990782, 82.9472544617981, 82.9472544617981, 84.5074907261467, 85.68562831351197, 85.47865819681266, 84.25275827482447, 84.25275827482447, 83.72737259397239, 83.29751158236614, 82.72436356689114, 82.72436356689114, 81.59398831414879, 82.11937399500087, 83.01093757462866, 83.01093757462866, 83.55224403368837, 83.29751158236614, 82.50147267198422, 80.75018706914395, 80.75018706914395, 79.76309882027034, 79.38100014328701, 76.59486395695022, 76.59486395695022, 69.71708777125026, 60.769610418557264, 51.185301937558705, 51.185301937558705, 41.059686997500435, 28.721083886580377, 19.471111747942242, 13.580423811115889, 13.580423811115889, 8.29472544617981, 5.046886691821497, 3.486650427472895, 3.486650427472895, 2.037859610577765, 1.1781375873652704, 0.8915635796277722, 0.8915635796277722, 0.8756428014201335, 0.8438012450048559, 0.8278804667972169, 0.8278804667972169, 0.8119596885895782, 0.8278804667972169, 0.7960389103819394, 0.7801181321743007, 0.7801181321743007, 0.7960389103819394, 0.8438012450048559, 0.8597220232124947, 0.8597220232124947, 0.9711674706659661, 1.130375252742354, 1.2577414784034644, 1.2577414784034644, 1.273662256611103, 1.2418207001958255, 1.2258999219881868, 1.2418207001958255, 1.2418207001958255, 1.2895830348187418, 1.3851077040645747, 1.5443154861409627, 1.5443154861409627, 1.9741764977472098, 2.786136186336788, 5.476747703427744, 5.476747703427744, 14.010284822722136, 24.16774131919568, 34.468484819537984, 34.468484819537984, 48.01706707423859, 57.7128210026906, 64.46323096272945, 64.46323096272945, 69.79669166228845, 76.22868605817452, 82.89949212717518, 82.89949212717518, 85.66970753530433, 90.20712932448139, 92.89774084157234, 92.89774084157234, 95.23809523809523, 97.41924185254175, 98.23120154113133, 98.23120154113133, 99.5367053541577, 98.15159765009314, 97.94462753339384, 99.91880403114104, 99.91880403114104, 100.30090270812437, 99.82327936189522, 102.00442597634172, 102.00442597634172, 103.38953368040632, 104.53582971135629, 105.5229179602299, 105.5229179602299, 105.82541274617503, 107.36972823231599, 108.02248013882918, 108.02248013882918, 108.05432169524447, 107.81551002212989, 107.71998535288405, 107.76774768750697, 107.76774768750697, 107.43341134514654, 107.32196589769308, 107.33788667590072, 107.33788667590072, 106.95578799891739, 106.39856076165002, 106.25527375778128, 106.25527375778128]",0,8.015724500000942
reward-effort-pgACC-TUS,R88533/RE002,testing,0,2024-07-05_11h06.53.906,None,333,28,f,1.916839599609375,7,20,approach,shifted,heart,0.6579999999999999,70,40,51,accept,2.1664769000490196,success,51,160,"[0.9234051360430497, 0.9234051360430497, 0.8597220232124947, 0.8597220232124947, 0.8597220232124947, 0.9234051360430497, 0.907484357835411, 0.9552466924583274, 0.9552466924583274, 0.9393259142506886, 0.9234051360430497, 0.9552466924583274, 0.9711674706659661, 0.9711674706659661, 1.0030090270812437, 1.1781375873652704, 1.3851077040645747, 1.3851077040645747, 3.009027081243731, 5.699638598334687, 10.635079842702712, 10.635079842702712, 14.58343283819713, 22.273168712486665, 28.418589100635238, 28.418589100635238, 32.764961551320624, 38.32131314578657, 42.3174284759039, 46.98221649074207, 46.98221649074207, 48.00114629603095, 48.574294311505945, 51.10569804652051, 51.10569804652051, 54.67195236503161, 57.96755345401283, 59.51186894015379, 59.51186894015379, 61.5656493289392, 62.93483625479613, 63.93784528187738, 63.93784528187738, 64.1925777331996, 64.1925777331996, 64.90901275254335, 64.90901275254335, 65.68913088471766, 66.80358535925237, 68.7459203005843, 68.7459203005843, 69.44643454172041, 70.3857604559711, 71.579818821544, 71.579818821544, 73.44254987183774, 74.9868653579787, 75.36896403496203, 75.36896403496203, 75.9739536068523, 77.19985352884049, 77.9003677699766, 77.9003677699766, 78.48943656365923, 78.33022878158285, 77.27945741987868, 77.27945741987868, 77.21577430704812, 78.52127812007451, 78.98298068809603, 79.2536339176259, 79.2536339176259, 80.39992994857589, 81.08452341150435, 81.08452341150435, 81.08452341150435, 83.5204024772731, 83.80697648501058, 83.61592714651891, 83.61592714651891, 83.37711547340434, 82.03977010396268, 81.100444189712, 81.100444189712, 80.90939485122033, 81.0208402986738, 81.0208402986738, 81.0208402986738, 81.0208402986738, 81.2278104153731, 81.16412730254254, 81.2278104153731, 81.2278104153731, 81.73727531801754, 81.2278104153731, 80.92531562942796, 80.92531562942796, 80.39992994857589, 80.39992994857589, 80.49545461782172, 80.49545461782172, 80.4476922831988, 79.71533648564741, 79.41284169970228, 79.41284169970228, 79.20587158300297, 78.7600897931891, 78.7600897931891, 78.7600897931891, 78.99890146630368, 78.99890146630368, 79.4606040343252, 79.4606040343252, 80.43177150499116, 80.97307796405089, 81.27557274999602, 81.27557274999602, 81.5143844231106, 82.23081944245435, 82.59699734123004, 82.59699734123004, 83.6477687029342, 84.36420372227794, 84.82590629029947, 84.82590629029947, 84.52341150435433, 84.31644138765503, 85.25576730190572, 85.25576730190572, 85.4149750839821]",81.3710974192419,2.13193150004372
reward-effort-pgACC-TUS,R88533/RE002,testing,0,2024-07-05_11h06.53.906,None,333,28,f,1.916839599609375,7,21,approach,shifted,heart,0.6819999999999999,60,20,20,accept,1.3630377000081353,success,20,180,"[13.675948480361718, 17.958637818216555, 17.958637818216555, 17.958637818216555, 24.48615688334846, 29.055420228940793, 29.055420228940793, 32.95601088981229, 37.58895734823518, 39.945232522965725, 39.945232522965725, 40.980083106462246, 40.64574676410183, 39.67457929343586, 39.67457929343586, 39.8974701883428, 42.524398592603205, 46.106573689321934, 46.106573689321934, 48.87678909745109, 53.684864116157996, 58.875037811848244, 58.875037811848244, 62.42537135215169, 64.30402318065308, 66.02346722707806, 66.02346722707806, 68.76184107879193, 70.05142411361066, 70.41760201238635, 69.6534046584197, 69.6534046584197, 68.88920730445304, 68.15685150690166, 67.29712948368916, 67.29712948368916, 67.0264762541593, 67.90211905557943, 68.23645539793985, 68.23645539793985, 68.0931683940711, 68.84144496983012, 69.44643454172041, 69.44643454172041, 70.27431500851762, 70.46536434700928, 70.3857604559711, 70.3857604559711, 69.74892932766554, 69.38275142888985, 69.28722675964401, 69.28722675964401, 69.0802566429447, 68.9528904172836, 69.38275142888985, 70.27431500851762, 70.27431500851762, 70.95890847144608, 73.07637197306205, 74.50924201174954, 74.50924201174954, 75.36896403496203, 77.05656652497174, 77.99589243922243, 77.99589243922243, 78.55311967648979, 79.49244559074047, 81.21188963716547, 81.21188963716547, 82.16713632962379, 81.38701819744949, 80.98899874225852, 80.98899874225852, 81.86464154367866, 81.62582987056408, 81.00491952046616, 81.00491952046616, 81.3551766410342, 80.94123640763561, 79.54020792536339, 79.54020792536339, 79.28547547404116, 79.23771313941825, 78.74416901498145, 78.74416901498145, 78.58496123290506, 78.1869417777141, 78.1073378866759, 78.1073378866759, 77.58195220582382, 76.16500294534397, 75.59185492986897, 75.59185492986897, 74.87541991052524, 74.84357835410995, 75.67145882090716, 75.67145882090716, 75.05054847080925, 73.77688621419814, 73.80872777061343, 73.80872777061343, 74.047539443728, 73.93609399627454, 73.28334208976135, 73.28334208976135, 72.20072917164191, 71.80270971645093, 71.77086816003566, 71.77086816003566, 71.61166037795927, 71.99375905494261, 73.09229275126968, 73.09229275126968, 73.49031220646066, 74.39779656429606]",76.31951279286724,1.88186050002696
reward-effort-pgACC-TUS,R88533/RE002,testing,0,2024-07-05_11h06.53.906,None,333,28,f,1.916839599609375,8,22,approach,normal,heart,0.706,100,80,72,accept,4.62627569999313,success,72,252,"[0.4776233462291637, 0.49354412443680246, 0.49354412443680246, 0.49354412443680246, 0.49354412443680246, 0.4617025680215249, 0.49354412443680246, 0.49354412443680246, 0.5572272372673577, 0.8597220232124947, 2.2448297272770694, 2.2448297272770694, 6.177261944563851, 13.182404355924918, 19.280062409450576, 19.280062409450576, 29.119103341771346, 34.80282116189839, 38.97406505229976, 46.7911671522504, 46.7911671522504, 50.40518380538441, 56.24810940758784, 59.17753259779338, 59.17753259779338, 62.345767461113496, 65.72097244113291, 68.15685150690166, 68.15685150690166, 70.52904745983983, 73.12413430768497, 75.63961726449189, 75.63961726449189, 78.66456512394325, 82.40594800273837, 84.49156994793906, 85.68562831351197, 85.68562831351197, 86.52942955851682, 86.78416200983904, 86.78416200983904, 86.70455811880085, 87.19810224323766, 89.53845663976055, 90.89172278740985, 90.89172278740985, 91.7355240324147, 92.54748372100428, 92.29275126968206, 92.29275126968206, 92.10170193119039, 93.0091862890258, 94.99928356498066, 94.99928356498066, 95.58835235866329, 95.89084714460843, 96.68688605499037, 96.68688605499037, 97.65805352565633, 99.1227651207591, 99.5367053541577, 100.95365461463757, 100.95365461463757, 101.92482208530353, 102.05218831096462, 101.87705975068062, 101.87705975068062, 101.3357532916209, 100.04617025680216, 97.5625288564105, 97.5625288564105, 97.81726130773272, 98.08791453726258, 99.17052745538201, 99.47302224132716, 99.47302224132716, 99.93472480934868, 101.01733772746813, 102.17955453662574, 102.17955453662574, 102.35468309690978, 102.35468309690978, 102.88006877776186, 102.88006877776186, 103.21440512012228, 103.40545445861393, 103.45321679323685, 103.45321679323685, 104.2492557036188, 105.18858161786949, 105.74580885513684, 105.74580885513684, 105.42739329098407, 105.49107640381462, 105.69804652051393, 105.69804652051393, 106.93986722070974, 107.13091655920141, 107.56077757080766, 107.56077757080766, 107.43341134514654, 107.0513126681632, 106.33487764881949, 106.33487764881949, 106.90802566429447, 107.7359061310917, 108.54786581968125, 108.88220216204168, 108.88220216204168, 109.15285539157153, 109.31206317364793, 109.31206317364793, 109.31206317364793, 109.90113196733056, 110.1240228622375, 110.29915142252153, 110.29915142252153, 110.1240228622375, 110.21954753148333, 110.50612153922084, 110.50612153922084, 110.09218130582224, 110.31507220072918, 110.47427998280557, 110.28323064431389, 110.28323064431389, 109.94889430195347, 109.77376574166946, 109.1369346133639, 108.7707567145882, 108.7707567145882, 108.64339048892711, 108.27721259015142, 107.9110346913757, 107.9110346913757, 107.64038146184585, 107.11499578099377, 106.01646208466671]",107.21887233388951,2.281634100014344
reward-effort-pgACC-TUS,R88533/RE002,testing,0,2024-07-05_11h06.53.906,None,333,28,f,1.916839599609375,8,23,approach,normal,heart,0.4,60,100,98,accept,29.262966500013135,success,98,350,"[0.7482765757590231, 1.2418207001958255, 1.2418207001958255, 1.9582557195395711, 3.486650427472895, 3.486650427472895, 4.632946458422888, 6.113578831733295, 6.113578831733295, 9.966407157981882, 14.233175717629079, 14.233175717629079, 17.385489802741557, 23.308019295983186, 30.758943497158143, 30.758943497158143, 36.68147299039977, 42.412953145149736, 47.69865151008582, 47.69865151008582, 52.14054863001704, 58.14268201429685, 62.28208434828294, 62.28208434828294, 67.5200203785961, 70.49720590342457, 72.78979796532454, 72.78979796532454, 74.047539443728, 74.76397446307176, 74.76397446307176, 73.79280699240579, 70.70417602012387, 69.76485010587318, 69.76485010587318, 70.19471111747943, 70.2265526738947, 70.17879033927179, 70.17879033927179, 70.27431500851762, 70.29023578672525, 70.76785913295441, 70.64049290729331, 70.64049290729331, 69.92405788794956, 69.19170209039818, 68.07724761586347, 68.07724761586347, 67.69514893888014, 67.77475282991833, 67.91803983378708, 67.91803983378708, 67.98172294661762, 68.0931683940711, 67.63146582604958, 67.63146582604958, 67.34489181831208, 67.36081259651971, 67.32897104010443, 67.71106971708777, 67.71106971708777, 67.94988139020235, 68.07724761586347, 68.39566318001624, 68.39566318001624, 69.03249430832179, 69.44643454172041, 70.29023578672525, 70.21063189568706, 70.21063189568706, 69.95589944436485, 70.25839423030997, 70.59273057267039, 70.59273057267039, 70.65641368550095, 70.67233446370858, 70.21063189568706, 70.21063189568706, 69.46235531992804, 69.22354364681345, 69.28722675964401, 68.63447485313083, 68.63447485313083]",69.42503283986751,1.368316899985075
reward-effort-pgACC-TUS,R88533/RE002,testing,0,2024-07-05_11h06.53.906,None,333,28,f,1.916839599609375,8,24,approach,normal,heart,0.32599999999999996,85,60,55,reject,53.71177400002489,None,0,350,"null",None,None
