expName,curec_ID,trial_schedule,session_nr,date,start_time,end_time,duration,participant,age,gender,max_strength,block_number,trial_count,block_action_type,block_global_effort_state,block_attention_focus,trial_rating,trial_effort,trial_outcome_level,trial_actual_outcome,response,response_time,result,points,cumulative_points,effort_trace,effort_expended,effort_response_time,final_bonus_payment
reward-effort-pgACC-TUS,R88533/RE002,B_6,1,2024-07-25_13h48.09.019,2024-07-25 13:51:34,None,None,3,,,4.419726562499999,1,1,avoid,shifted,heart,None,80,-40,-40,accept,1.7254286999814212,success,0,0,"[1.3809713199876268, 1.3809713199876268, 1.394781033187503, 1.394781033187503, 1.4154956029873174, 1.498353882186575, 1.5674024481859565, 1.5674024481859565, 1.6157364443855233, 1.6778801537849664, 1.7952627159839147, 1.7952627159839147, 1.9402647045826154, 2.1957443987803265, 2.465033806177914, 2.706703787175748, 2.706703787175748, 3.003612620973088, 3.645764284767335, 3.645764284767335, 5.461741570551064, 6.856522603738567, 8.983218436519511, 8.983218436519511, 13.312563524680721, 17.31738035264484, 22.102445976401967, 28.116576074948078, 28.116576074948078, 32.28710946131071, 37.3552742056653, 37.3552742056653, 41.47056873922843, 46.248729506385615, 49.39043925935747, 52.4907198727297, 52.4907198727297, 55.95695788589864, 57.6348380396836, 60.63154580405675, 60.63154580405675, 62.56490565203943, 64.18064209642496, 66.12781165760751, 66.12781165760751, 67.37759070219631, 67.7021189623934, 68.74475230898406, 69.91167307437361, 69.91167307437361, 71.76907949975696, 72.210990322153, 72.210990322153, 72.32146802775202, 73.68862963453977, 74.16506473993549, 74.80721640372974, 74.80721640372974, 75.02126695832783, 75.57365548632288, 77.03748508550976, 77.03748508550976, 77.8246387379027, 78.0594038623006, 79.61990145388663, 79.61990145388663, 80.77991736267623, 81.58778558486898, 82.72018206725885, 82.72018206725885, 83.78352998364932, 83.8525785496487, 83.78352998364932, 83.78352998364932, 84.40496707764375, 84.65354191524152, 84.93664103583897, 84.83997304343984, 84.83997304343984, 84.84687790003979, 85.08164302443768, 85.2473595828362, 85.2473595828362, 84.97807017543862, 85.62712669583279, 86.17951522382783, 86.17951522382783, 86.59380661982414, 86.38666092182599, 86.24856378982723, 86.24856378982723, 86.1518957974281, 87.38096027221708, 87.88501480401256, 87.88501480401256, 88.56859560740644, 88.81717044500421, 89.27979583720007, 89.27979583720007, 89.6112289539971, 89.07265013920193, 89.7009920897963, 89.7009920897963, 90.31552432719079, 90.41219231958992, 90.74362543638695, 90.74362543638695, 91.54458880197977, 91.54458880197977, 91.03362941358435, 91.03362941358435, 91.33744310398163, 92.525078439171, 93.74723805736004, 93.74723805736004, 94.0303371779575, 94.18914887975608, 94.10629060055682, 94.10629060055682, 94.56891599275268, 96.0051261655398, 96.48846612753547, 95.68059790534271, 95.68059790534271, 95.57702505634364, 96.45394184453579, 96.78537496133282, 96.78537496133282, 96.71632639533344, 96.31584471253703, 95.35606964514562, 95.35606964514562]",89.90334893563644,2.1919534999178723,None
reward-effort-pgACC-TUS,R88533/RE002,B_6,1,2024-07-25_13h48.09.019,2024-07-25 13:51:34,None,None,3,,,4.419726562499999,1,2,avoid,shifted,heart,None,90,-80,-81,accept,3.618653199984692,success,0,0,"[2.796466922974944, 3.5145720093685098, 3.5145720093685098, 4.4260130805603435, 5.9727009589464854, 7.181050863935659, 7.181050863935659, 9.91537407751116, 14.044478324274165, 17.918102876839455, 24.53295549958019, 24.53295549958019, 29.51826196473552, 35.18024437668479, 43.2036877458129, 43.2036877458129, 48.64471474656415, 54.265268018913794, 59.39557647266782, 59.39557647266782, 62.12299482964339, 66.69400989880243, 71.20978611516198, 71.20978611516198, 73.84744133633833, 75.29746122232535, 77.34129877590703, 77.34129877590703, 80.19300455168148, 81.35992531707103, 83.59019399885105, 83.59019399885105, 86.05522780502895, 90.02552034999339, 90.32242918379072, 90.32242918379072, 91.55839851517965, 94.14771974015646, 95.59083476954352, 95.59083476954352, 96.23298643333776, 98.31134826991914, 101.21829289849309, 101.21829289849309, 101.81901542268773, 101.81901542268773, 103.16546245967567, 104.79500861726106, 104.79500861726106, 104.6223872022626, 104.76738919086131, 105.91359538645102, 105.91359538645102, 106.5419373370454, 105.72025940165277, 106.18288479384861, 106.18288479384861, 106.18288479384861, 106.2864576428477, 105.63049626585357, 105.63049626585357, 105.11263202085821, 105.39573114145566, 105.85145167705159, 105.85145167705159, 105.81002253745196, 105.76168854125238, 105.43025542445537, 105.43025542445537, 104.55333863626322, 104.19428609306645, 103.77999469707015, 103.77999469707015, 102.73045649387956, 102.32997481108315, 101.51520173229045, 101.51520173229045, 101.9433028414866, 102.69593221087987, 103.49689557647268, 103.49689557647268, 103.73166070087059, 102.012351407486, 101.33567546069204, 101.33567546069204, 101.5428211586902, 101.50139201909056, 100.99733748729507, 100.99733748729507, 101.16305404569358, 101.33567546069204, 101.32877060409211, 101.32877060409211, 101.08710062309427, 102.07449511688542, 101.81901542268773, 101.81901542268773, 101.16995890229354, 101.42543859649125]",102.85418706940425,1.6548049000557512,None
reward-effort-pgACC-TUS,R88533/RE002,B_6,1,2024-07-25_13h48.09.019,2024-07-25 13:51:34,None,None,3,,,4.419726562499999,1,3,avoid,shifted,heart,None,95,-40,-36,reject,1.5563856000080705,None,-36,-36,"null",None,None,None
reward-effort-pgACC-TUS,R88533/RE002,B_6,1,2024-07-25_13h48.09.019,2024-07-25 13:51:34,None,None,3,,,4.419726562499999,1,4,avoid,shifted,heart,None,95,-20,-16,reject,1.5063437999924645,None,-16,-52,"null",None,None,None
reward-effort-pgACC-TUS,R88533/RE002,B_6,1,2024-07-25_13h48.09.019,2024-07-25 13:51:34,None,None,3,,,4.419726562499999,1,5,avoid,shifted,heart,0.188,85,-40,-41,accept,2.5264242000412196,success,0,-52,"[2.016218127181935, 2.0369326969817494, 2.0369326969817494, 2.023122983781873, 2.0300278403818113, 2.0300278403818113, 2.0300278403818113, 2.0438375535816875, 2.0921715497812543, 2.0921715497812543, 2.471938662777852, 3.024327190772903, 5.862223253347476, 5.862223253347476, 8.216779353926379, 13.450660656679483, 17.71786203544125, 17.71786203544125, 25.699876264969735, 30.664468160325253, 37.00312651906846, 37.00312651906846, 44.377513367802386, 48.41685447876619, 52.60119757832871, 52.60119757832871, 54.948848822307674, 57.46221662468515, 61.018217773653284, 61.018217773653284, 63.94587697202706, 67.18425471739803, 68.95880286358214, 68.95880286358214, 71.7759843563569, 73.15695567634452, 74.74507269433029, 75.62198948252244, 75.62198948252244, 77.48630076450573, 79.78561801228513, 81.20801847187239, 81.20801847187239, 83.01018604445625, 84.30829908524461, 85.20593044323657, 85.20593044323657, 85.5718878430333, 86.73880860842283, 87.75382252861374, 87.75382252861374, 88.506451898007, 88.92764815060322, 90.26719033099123, 90.26719033099123, 90.89553228158559, 91.18553625878299, 91.2062508285828, 91.2062508285828, 90.76434000618676, 91.13029740598348, 91.64816165097885, 91.64816165097885, 91.21315568518274, 93.21556409916481, 94.05795660435726, 94.05795660435726, 93.51247293296214, 93.52628264616202, 93.9405740421583, 93.9405740421583, 93.8853351893588, 94.42391400415397, 94.72082283795132, 94.72082283795132, 95.24559193954661, 95.70821733174247, 94.69320341155156, 94.69320341155156, 94.8243956869504, 96.37798842193646, 96.37798842193646, 97.26871492332849, 97.00633037253084, 94.72772769455126, 94.72772769455126, 95.14892394714748, 96.20536700693802, 95.67369304874278, 95.67369304874278, 95.25940165274649, 94.79677626055064, 94.8243956869504, 94.8243956869504, 94.4998674267533, 94.59653541915243, 95.32154536214593, 95.32154536214593, 95.19035308674711, 93.95438375535818, 94.00271775155775, 94.00271775155775, 94.27200715895535, 93.96819346855806, 93.22937381236468, 93.70580891776041, 93.70580891776041, 93.98890803835788, 93.65747492156085, 93.13961067656548, 93.13961067656548, 93.76795262715986]",93.77689498242862,1.8628811999224126,None
reward-effort-pgACC-TUS,R88533/RE002,B_6,1,2024-07-25_13h48.09.019,2024-07-25 13:51:34,None,None,3,,,4.419726562499999,1,6,avoid,shifted,heart,None,60,-20,-22,accept,1.4742490999633446,success,0,-52,"[2.485748375977728, 2.485748375977728, 2.485748375977728, 2.47884351937779, 2.471938662777852, 2.471938662777852, 2.471938662777852, 2.47884351937779, 2.471938662777852, 2.900039771974016, 2.900039771974016, 4.9231627557558895, 8.520593044323657, 13.554233505678557, 13.554233505678557, 18.325489416235808, 25.34772857837289, 28.876110300941278, 28.876110300941278, 34.793572407088256, 38.67410181625349, 46.290158645985244, 46.290158645985244, 49.887588934553015, 53.277873525122644, 56.66125325909233, 56.66125325909233, 57.66245746608335, 61.2391731848513, 62.13680454284326, 62.13680454284326, 62.59942993503912, 62.910148482036334, 64.29111980202397, 64.29111980202397, 67.50878297759513, 67.97831322639092, 68.38569976578728, 68.38569976578728, 69.6216690971762, 70.20858190817094, 70.69192187016661, 70.69192187016661, 70.38810817976933, 69.67000309337577, 69.67000309337577, 70.21548676477089, 71.99693976755492, 71.06478412656327, 71.3064541075611, 71.3064541075611, 71.27883468116136, 69.43523796897787, 69.43523796897787, 69.44904768217775, 70.44334703256884, 71.18216668876222, 71.18216668876222, 71.41693181316012, 71.25812011136154, 71.40312209996024, 71.40312209996024, 71.72765036015734, 70.22929647797076, 69.51119139157719, 69.51119139157719, 70.1464381987715, 70.62977816076716, 69.58714481417651, 69.58714481417651, 69.26261655397941, 69.57333510097664, 69.74595651597508, 69.74595651597508, 68.82761058818332, 68.53760661098592, 69.49047682177738, 69.79429051217465, 69.79429051217465, 69.46285739537763, 70.04977020637236, 72.05217862035443, 72.05217862035443, 72.16956118255338, 71.99693976755492, 71.99693976755492, 72.33527774095188, 74.54483185293209, 74.9453135357285, 74.95221839232843, 74.95221839232843, 75.25603208272572, 76.11913915771798, 76.76129082151223, 76.76129082151223, 77.84535330770251, 78.16988156789961]",71.21134527632971,1.6037247999338433,None
reward-effort-pgACC-TUS,R88533/RE002,B_6,1,2024-07-25_13h48.09.019,2024-07-25 13:51:34,None,None,3,,,4.419726562499999,1,7,avoid,shifted,heart,None,80,-60,-59,accept,3.134927799925208,success,0,-52,"[1.8297869989836055, 1.8366918555835436, 1.8366918555835436, 1.905740421582925, 1.905740421582925, 2.0576472667815637, 2.9621834813734593, 4.232677095762076, 4.232677095762076, 6.566518626541165, 8.644880463122544, 12.863747845684742, 12.863747845684742, 16.82713553404923, 22.944838481594417, 27.798952671350925, 27.798952671350925, 32.59782800830793, 38.23909585045738, 43.56274028900968, 43.56274028900968, 47.47088912457467, 52.331908170931115, 55.44599849750321, 57.80745945468205, 57.80745945468205, 61.45322373944939, 62.5234765124398, 63.738731274028915, 63.738731274028915, 66.87353617040083, 68.28903177338815, 69.33856997657874, 69.33856997657874, 69.91857793097354, 71.96932034115517, 73.42624508374212, 73.42624508374212, 73.59196164214062, 74.93150382252863, 76.4298577047152, 77.4793959079058, 77.4793959079058, 77.67273189270406, 79.50942374828762, 80.46919881567901, 80.46919881567901, 79.26084891068984, 79.47489946528792, 80.92491935127492, 80.92491935127492, 82.7685160634584, 83.51424057625174, 84.1080582438464, 84.1080582438464, 85.157596447037, 85.32331300543552, 84.90902160943922, 84.90902160943922, 85.34402757523533, 85.80665296743119, 87.30500684961775, 87.30500684961775, 89.01741128640242, 90.06004463299307, 90.11528348579259, 90.12909319899246, 90.12909319899246, 90.00480578019358, 90.28790490079103, 90.87481771178577, 90.87481771178577, 92.09007247337489, 93.87152547615892, 94.29272172875515, 94.29272172875515, 93.93366918555837, 92.95317954836716, 92.00030933757569, 92.00030933757569, 91.91745105837643, 92.13150161297452, 92.2557890317734, 93.24318352556456, 93.24318352556456, 93.18794467276506, 91.84840249237706, 90.25338061779135, 90.25338061779135, 90.28100004419109, 90.95077113438509, 91.22006054178269, 90.86791285518584, 90.86791285518584, 91.37196738698132, 91.30291882098194, 90.95077113438509, 90.95077113438509, 90.84719828538603, 90.88172256838571, 90.43981174598967, 90.43981174598967, 91.01981970038447, 90.19814176499183, 89.38336868619913, 89.38336868619913, 89.956471783994, 89.59051438419728, 89.2659861240002, 89.36955897299926, 89.36955897299926, 89.30741526359982, 89.12788899200143, 89.41789296919883]",90.10328488252057,1.8991935999365523,None
reward-effort-pgACC-TUS,R88533/RE002,B_6,1,2024-07-25_13h48.09.019,2024-07-25 13:51:34,None,None,3,,,4.419726562499999,1,8,avoid,shifted,heart,None,55,-20,-20,reject,4.864285899908282,None,-20,-72,"null",None,None,None
reward-effort-pgACC-TUS,R88533/RE002,B_6,1,2024-07-25_13h48.09.019,2024-07-25 13:51:34,None,None,3,,,4.419726562499999,1,9,avoid,shifted,heart,None,75,-20,-20,accept,2.373914399999194,success,0,-72,"[5.206261876353353, 5.206261876353353, 5.206261876353353, 5.220071589553229, 5.25459587255292, 5.275310442352734, 5.275310442352734, 5.28912015555261, 5.537694993150383, 6.221275796544258, 6.676996332140176, 6.676996332140176, 7.795583101330153, 10.999436563701446, 10.999436563701446, 14.659010561668659, 21.481008882407533, 26.89441645675903, 31.27900039771975, 31.27900039771975, 37.70742189226215, 46.04848866498742, 46.04848866498742, 51.47570595253879, 56.84077953069071, 61.9987074108445, 65.19565601661586, 65.19565601661586, 67.81259666799241, 70.69882672676655, 74.6898338415308, 74.6898338415308, 78.74298466569446, 80.43467453267932, 83.41066772725266, 83.41066772725266, 85.51664899023379, 86.19332493702773, 86.65595032922357, 86.65595032922357, 88.49954704140706, 90.35004861019048, 89.956471783994, 89.956471783994, 88.58240532060631, 89.69408723319636, 90.28100004419109, 90.57790887798843, 90.57790887798843, 90.86791285518584, 91.14410711918336, 91.14410711918336, 91.04743912678423, 91.10958283618368, 90.84719828538603, 90.84719828538603, 91.18553625878299, 92.33174245437272, 91.5514936585797, 91.5514936585797, 91.10958283618368, 92.2903133147731, 92.77365327676877, 92.91865526536746, 92.91865526536746, 91.42720623978082, 91.22696539838262, 91.42720623978082, 91.42720623978082, 90.92315170798534, 90.34314375359054, 87.96787308321183, 87.96787308321183, 87.43619912501659, 86.84928631402184, 86.1726103672279, 86.1726103672279, 86.08284723142872, 86.27618321622698, 85.44069556763446, 85.44069556763446, 84.18401166644573, 84.26686994564498, 84.38425250784393, 84.38425250784393, 83.35542887445315, 83.73519598744976, 85.00568960183837, 85.00568960183837, 84.34972822484424, 84.5223496398427, 84.90902160943922, 84.90902160943922, 85.268074152636, 86.26927835962704]",88.12133908957819,1.5659177999477834,None
reward-effort-pgACC-TUS,R88533/RE002,B_6,1,2024-07-25_13h48.09.019,2024-07-25 13:51:34,None,None,3,,,4.419726562499999,1,10,avoid,shifted,heart,None,75,-80,-89,accept,1.1383878999622539,success,0,-72,"[2.313126960979275, 2.333841530779089, 2.333841530779089, 2.471938662777852, 2.471938662777852, 2.6514649343762433, 2.989802907773212, 4.43982279376022, 4.43982279376022, 7.1534314375359065, 11.323964823898539, 17.06190065844713, 17.06190065844713, 25.45130142737196, 33.88213133589642, 41.74676300322596, 41.74676300322596, 51.38594281673959, 58.056034292279826, 63.738731274028915, 63.738731274028915, 69.26261655397941, 73.10862168014496, 75.9050886031199, 75.9050886031199, 77.89368730390208, 81.61540501126873, 84.87449732643954, 87.97477793981176, 87.97477793981176, 88.37525962260817, 87.24976799681826, 89.4662269653984, 89.4662269653984, 90.72981572318707, 90.26719033099123, 88.9414578638031, 88.9414578638031, 88.93455300720316, 90.19814176499183, 90.30171461399091, 89.27289098060012, 89.27289098060012, 90.55719430818863, 91.22006054178269, 91.17863140218306, 91.17863140218306, 92.98770383136684, 93.6298554951611, 93.975098325158, 93.975098325158, 93.79557205355961, 92.9255601219674, 91.02672455698442, 91.02672455698442, 90.21195147819172, 91.06124883998412, 92.31793274117285, 92.31793274117285, 93.00841840116667, 90.57790887798843, 89.72170665959611, 90.07385434619295, 90.07385434619295, 89.22455698440056, 88.67216845640552, 88.83098015820408, 88.83098015820408, 89.56289495779754, 89.53527553139777, 88.96907729020285, 88.96907729020285, 89.845994078395, 90.52957488178886, 90.1912369083919, 90.1912369083919, 88.36835476600824, 88.07835078881084, 88.65145388660571, 88.65145388660571, 87.40857969861683, 85.76522382783156, 85.79974811083126, 85.79974811083126, 87.14619514781918, 86.62833090282382, 84.83997304343984, 83.96305625524771]",89.43793932706964,1.4576325000962242,None
reward-effort-pgACC-TUS,R88533/RE002,B_6,1,2024-07-25_13h48.09.019,2024-07-25 13:51:34,None,None,3,,,4.419726562499999,1,11,avoid,shifted,heart,None,95,-60,-53,reject,6.091724599944428,None,-53,-125,"null",None,None,None
reward-effort-pgACC-TUS,R88533/RE002,B_6,1,2024-07-25_13h48.09.019,2024-07-25 13:51:34,None,None,3,,,4.419726562499999,1,12,avoid,shifted,heart,0.22,75,-40,-46,accept,1.2217660000314936,success,0,-125,"[3.707907994166778, 4.066960537363561, 4.066960537363561, 4.702207344557869, 4.702207344557869, 5.351263864952053, 5.717221264748774, 6.442231207742279, 6.442231207742279, 7.408911131733617, 10.012042069910294, 14.465674576870391, 14.465674576870391, 19.38883733262628, 26.04511909496664, 31.4516218127182, 31.4516218127182, 36.14692430067613, 39.06767864244996, 43.25202174201247, 43.25202174201247, 46.2280149365858, 48.713763312563536, 51.24094082814089, 51.24094082814089, 55.169804233505694, 57.67626717928322, 59.69248530646516, 59.69248530646516, 61.36346060365019, 62.578715365239304, 64.99541517521766, 64.99541517521766, 67.26020813999736, 69.6216690971762, 72.72885456714836, 72.72885456714836, 74.64149984533123, 75.39412921472449, 76.91319766671087, 76.91319766671087, 78.4046466922975, 79.86157143488445, 79.93752485748378, 79.93752485748378, 79.69585487648594, 81.18039904547264, 83.35542887445315, 83.35542887445315, 83.45209686685229, 83.36923858765303, 83.90091254584826, 83.90091254584826, 84.30829908524461, 84.60520791904194, 84.90902160943922, 84.90902160943922, 85.827367537231, 87.5466768306156, 88.39597419240799, 87.4016748420169, 87.4016748420169, 87.12548057801936, 87.31881656281763, 87.16000486101906, 87.16000486101906, 86.55237748022451, 87.67786910601441, 87.37405541561715, 87.37405541561715, 86.90452516682134, 87.11857572141943, 87.6019156834151, 87.6019156834151, 86.3521366388263, 85.52355384683372, 85.3371227186354, 85.3371227186354, 86.25546864642718, 86.13808608422822, 86.11046665782847, 86.11046665782847, 85.54426841663354, 84.9228313226391, 84.77092447744047, 84.77092447744047, 85.10926245083743, 86.16570551062796, 86.18642008042778, 86.18642008042778, 85.53045870343367, 85.55807812983342, 86.22094436342748, 86.22094436342748, 84.91592646603917, 83.47971629325204, 82.60970436165984, 82.60970436165984, 82.43708294666138, 83.79733969684919, 84.25996508904504, 84.25996508904504, 84.4533010738433, 85.05402359803793]",85.10402812406008,1.7149917000206187,None
reward-effort-pgACC-TUS,R88533/RE002,B_6,1,2024-07-25_13h48.09.019,2024-07-25 13:51:34,None,None,3,,,4.419726562499999,1,13,avoid,shifted,heart,None,50,-100,-97,accept,1.4444303000345826,success,0,-125,"[5.351263864952053, 5.454836713951126, 5.454836713951126, 5.537694993150383, 5.820794113747847, 6.269609792743826, 6.269609792743826, 6.76675946793937, 8.120111361527245, 11.61396880109594, 11.61396880109594, 15.183779663263955, 21.97125370100314, 28.05443236554864, 28.05443236554864, 33.70260506429803, 40.20697998143975, 46.11753723098679, 51.62070794113749, 51.62070794113749, 56.98578151928941, 61.853705422245795, 64.92636660921826, 64.92636660921826, 67.62616553979409, 67.97831322639092, 69.58714481417651, 71.41002695656017, 71.41002695656017, 71.70693579035752, 71.70693579035752, 71.85884263555616, 71.85884263555616, 72.41123116355121, 72.03836890715455, 71.86574749215609, 71.86574749215609, 72.43194573335103, 72.79790313314774, 72.0659883335543, 71.2166909717619, 71.2166909717619, 70.42953731936896, 70.20167705157101, 68.70332316938443, 68.70332316938443, 68.27522206018827, 68.75856202218394, 69.08309028238102, 69.08309028238102, 69.51119139157719, 70.18786733837112, 70.56763445136772, 70.28453533077025, 70.28453533077025, 69.55952538777676, 69.34547483317868, 69.82190993857441, 69.82190993857441, 69.88405364797386, 69.50428653497725, 70.04977020637236, 70.04977020637236, 71.00954527376376, 70.27072561757038, 69.24880684077954, 69.24880684077954, 69.01404171638164, 69.1521388483804, 69.43523796897787, 69.43523796897787, 69.42833311237794, 69.36618940297849, 69.25571169737948, 68.90356401078263, 68.90356401078263, 68.58594060718548, 68.19236378098901, 68.641179459985, 68.641179459985, 68.6273697467851, 68.55832118078573]",69.68505794465104,1.3689030000241473,None
reward-effort-pgACC-TUS,R88533/RE002,B_6,1,2024-07-25_13h48.09.019,2024-07-25 13:51:34,None,None,3,,,4.419726562499999,1,14,avoid,shifted,heart,None,100,-20,-19,reject,3.415387000073679,None,-19,-144,"null",None,None,None
reward-effort-pgACC-TUS,R88533/RE002,B_6,1,2024-07-25_13h48.09.019,2024-07-25 13:51:34,None,None,3,,,4.419726562499999,1,15,avoid,shifted,heart,None,85,-40,-45,accept,0.8673437000252306,success,0,-144,"[1.6295461575853993, 1.6295461575853993, 1.6295461575853993, 1.6295461575853993, 1.6157364443855233, 1.705499580184719, 3.1140903265720983, 3.1140903265720983, 6.359372928543021, 11.234201688099343, 15.591166202660306, 15.591166202660306, 22.254352821600605, 31.064949843121664, 37.76266074506165, 37.76266074506165, 46.317778072385, 52.4907198727297, 57.67626717928322, 61.68798886384729, 61.68798886384729, 62.11608997304345, 62.606334791639064, 63.95278182862699, 63.95278182862699, 65.97590481240887, 65.99661938220868, 65.86542710680986, 65.86542710680986, 67.88164523399179, 68.82761058818332, 69.83571965177428, 71.4514560961598, 71.4514560961598, 72.83933227274737, 73.12243139334484, 71.90027177515579, 71.90027177515579, 72.1212271863538, 72.92219055194663, 73.17767024614434, 73.17767024614434, 72.96361969154626, 73.19838481594415, 74.82102611692962, 74.82102611692962, 75.33198550532504, 76.59557426311372, 76.67843254231298, 76.67843254231298, 77.87297273410228, 79.87538114808433, 81.31159132087146, 81.31159132087146, 82.1885081090636, 83.47971629325204, 84.12186795704628, 84.12186795704628, 84.86759246983961, 85.39926642803484, 86.86309602722172, 86.86309602722172, 88.99669671660261, 90.14290291219234, 90.98529541738478, 90.98529541738478, 91.99340448097576, 93.84390604975917, 94.43081886075392, 94.43081886075392, 94.89344425294976, 96.35727385213664, 96.95799637633127, 96.95799637633127, 95.74274161474216, 95.44583278094481, 95.314640505546, 95.314640505546, 93.81628662335942, 93.64366520836097, 94.54129656635293, 94.54129656635293, 94.2443877325556, 93.60914092536127, 93.62295063856115, 94.48605771355342, 94.48605771355342, 94.96939767554909, 94.20295859295595, 93.9405740421583, 93.9405740421583, 93.9405740421583, 94.18914887975608, 94.01652746475763, 94.01652746475763, 94.43772371735385, 94.41700914755404, 94.18914887975608, 94.18914887975608, 93.75414291395998, 93.47794864996246, 93.63676035176103, 93.63676035176103, 93.6505700649609, 94.08557603075701, 94.36867515135448, 94.36867515135448, 94.79677626055064, 94.2305780193557, 91.6205422245791, 91.6205422245791, 91.2062508285828, 93.53318750276196, 93.80938176675949, 93.80938176675949, 93.3605660877635, 93.66437977816078, 93.40890008396308, 92.02102390737551, 92.02102390737551, 91.29601396438201, 92.27650360157321, 92.27650360157321]",93.70762002768828,2.0538234000559896,None
reward-effort-pgACC-TUS,R88533/RE002,B_6,1,2024-07-25_13h48.09.019,2024-07-25 13:51:34,None,None,3,,,4.419726562499999,1,16,avoid,shifted,heart,None,50,-20,-22,accept,1.2796858999645337,success,0,-144,"[4.260296522161829, 4.909353042556013, 4.909353042556013, 5.827698970347785, 7.125812011136154, 8.934884440319944, 8.934884440319944, 12.794699279685362, 16.806420964249416, 16.806420964249416, 22.482213089398563, 26.397266781563484, 30.429703035927353, 35.20786380308454, 35.20786380308454, 39.143632065049275, 45.10252331079589, 45.10252331079589, 48.396139908966376, 52.041904193733714, 55.09385081090636, 55.09385081090636, 57.531265190684536, 60.8939303548544, 61.28060232445094, 61.28060232445094, 62.04704140704407, 63.58682442883027, 64.07706924742588, 64.07706924742588, 64.97470060541784, 66.86663131380088, 67.74354810199303, 67.07377701179902, 67.07377701179902, 65.96899995580893, 66.30043307260595, 66.15543108400726, 66.15543108400726, 65.59613769941227, 65.25089486941536, 66.65948561580274, 66.65948561580274, 68.0266472225905, 68.19926863758894, 68.30284148658802, 68.30284148658802, 67.89545494719167, 67.75045295859297, 67.88164523399179, 67.88164523399179, 68.49617747138629, 68.73094259578419, 67.9368840867913, 67.9368840867913, 67.1221110079986, 66.85972645720095, 67.29473242299704, 67.29473242299704, 66.9218701666004, 66.5628176234036, 66.09328737460781, 66.09328737460781, 64.97470060541784, 64.622552918821, 64.67088691502056, 64.67088691502056, 65.79637854081048, 66.072572804808, 65.48565999381326, 65.48565999381326, 65.65137655221177, 66.50067391400415, 67.04615758539929, 67.04615758539929, 66.13471651420745, 65.63066198241197, 64.87112775641877, 64.87112775641877, 64.69160148482037, 64.64326748862081, 64.76065005081976, 64.76065005081976, 65.21637058641568, 64.51207521322199]",65.95841993359934,1.4037686999654397,None
reward-effort-pgACC-TUS,R88533/RE002,B_6,1,2024-07-25_13h48.09.019,2024-07-25 13:51:34,None,None,3,,,4.419726562499999,1,17,avoid,shifted,heart,0.278,80,-100,-81,accept,1.2016994999721646,success,0,-144,"[1.864311281983296, 1.864311281983296, 1.8712161385832342, 2.016218127181935, 2.4443192363780994, 2.4443192363780994, 3.4386185867691905, 4.785065623757126, 6.946285739537762, 6.946285739537762, 9.597750673914005, 13.954715188474967, 20.673140660214774, 20.673140660214774, 25.948451102567503, 30.36755932652791, 35.51167749348182, 35.51167749348182, 38.99863007645058, 42.713442927217294, 46.81492774758055, 48.693048742763715, 48.693048742763715, 50.840459145344475, 52.68405585752796, 54.2307437359141, 54.2307437359141, 54.4309845773123, 53.14668124972381, 55.22504308630519, 55.22504308630519, 57.53817004728447, 60.603926377657004, 62.22656767864246, 62.22656767864246, 63.73182641742897, 65.47185028061338, 66.99091873259977, 67.18425471739803, 67.18425471739803, 67.19806443059791, 68.42022404878698, 70.02215077997262, 70.02215077997262, 72.85314198594725, 74.6207852755314, 74.40673472093333, 74.40673472093333, 74.43435414733308, 74.95912324892838, 75.58056034292281, 75.58056034292281, 76.58176454991384, 77.59677847010474, 78.68084095629503, 78.68084095629503, 80.1584802686818, 80.7384882230766, 81.41516416987054, 84.07353396084672, 84.07353396084672, 84.9228313226391, 85.46831499403422, 86.41428034822574, 86.41428034822574, 86.69047461222327, 87.91263423041231, 87.76072738521367, 87.76072738521367, 87.3671505590172, 87.97477793981176, 86.87000088382166, 86.87000088382166, 85.90332095983032, 89.07955499580186, 89.97718635379381, 89.97718635379381, 88.53407132440675, 88.49264218480712, 88.92074329400327, 88.92074329400327, 88.87240929780373, 88.65835874320564, 90.56409916478856, 90.56409916478856, 90.81957885898628, 89.99790092359363, 89.82527950859517, 89.65265809359673, 89.65265809359673, 90.01171063679351, 90.86100799858589, 90.64005258738787, 90.64005258738787, 89.14169870520129, 89.74932608599586, 89.77694551239561, 89.77694551239561, 90.06004463299307, 89.87361350479475, 89.5559901011976, 89.5559901011976, 89.38336868619913, 89.69408723319636, 90.1912369083919, 90.17742719519202, 90.17742719519202, 90.26719033099123, 90.03933006319326, 89.81837465199524, 89.81837465199524, 89.85980379159487, 89.09336470900175, 88.506451898007, 88.506451898007, 88.30621105660879, 88.69288302620532, 88.52026161120688, 88.75502673560477, 88.75502673560477, 89.41098811259889]",88.81616812711064,2.011982100084424,None
reward-effort-pgACC-TUS,R88533/RE002,B_6,1,2024-07-25_13h48.09.019,2024-07-25 13:51:34,None,None,3,,,4.419726562499999,1,18,avoid,shifted,heart,None,75,-60,-56,accept,0.8636075999820605,success,0,-144,"[1.5881170179857709, 1.5881170179857709, 1.6502607273852137, 2.313126960979275, 2.313126960979275, 3.7907662733660357, 6.711520615139865, 11.565634804896375, 11.565634804896375, 16.005457598656594, 22.993172477793987, 29.124685138539046, 29.124685138539046, 34.39309072429184, 39.68911573644439, 45.337288435193784, 45.337288435193784, 49.39734411595741, 54.94194396570773, 56.25386671969598, 56.25386671969598, 57.103164081488366, 59.11247735207036, 62.04704140704407, 62.04704140704407, 61.632750011047776, 61.370365460250135, 62.5234765124398, 62.5234765124398, 65.91376110300942, 67.28782756639711, 66.6871050422025, 67.9921229395908, 67.9921229395908, 71.43764638295993, 71.83812806575635, 72.52170886915022, 72.52170886915022, 73.91648990233773, 75.06269609792746, 75.21460294312608, 75.21460294312608, 75.33889036192497, 76.20890229351718, 76.87867338371119, 76.87867338371119, 77.43796676830617, 77.92130673030184, 80.0687171328826, 80.0687171328826, 80.33800654028018, 81.01468248707413, 81.89159927526627, 81.89159927526627, 81.35992531707103, 81.93993327146583, 83.84567369304877, 84.00448539484732, 84.00448539484732, 83.78352998364932, 84.02519996464714, 84.0528193910469, 84.0528193910469, 83.65924256485042, 83.69376684785011, 83.83186397984888, 82.66494321445933, 82.66494321445933, 82.14017411286405, 83.41066772725266, 84.44639621724338, 84.44639621724338, 84.53615935304258, 84.43949136064344, 85.08164302443768, 85.08164302443768, 84.92973617923904, 84.21853594944541, 83.93543682884795, 83.93543682884795, 84.0528193910469, 84.90902160943922, 84.86759246983961, 84.86759246983961, 85.56498298643335, 86.24165893322728, 86.46951920102525, 86.46951920102525, 86.48332891422513, 85.18521587343676, 85.2473595828362, 85.2473595828362, 85.25426443943613, 84.9918798886385, 85.42688585443459, 85.42688585443459, 86.72499889522297, 85.61331698263291, 84.48092050024306, 84.48092050024306, 84.46020593044325, 84.61211277564189, 85.04021388483805, 85.04021388483805, 83.94234168544789, 84.58449334924214, 84.57758849264219, 84.57758849264219, 83.80424455344912]",84.13284781098386,1.8112954000243917,None
reward-effort-pgACC-TUS,R88533/RE002,B_6,1,2024-07-25_13h48.09.019,2024-07-25 13:51:34,None,None,3,,,4.419726562499999,1,19,avoid,shifted,heart,None,70,-40,-34,accept,1.0760227999417111,success,0,-144,"[1.5190684519863895, 1.505258738786513, 1.505258738786513, 1.4914490255866368, 1.5881170179857709, 1.5881170179857709, 2.326936674179151, 3.2314728887710467, 4.2188673825622, 4.2188673825622, 6.145322373944939, 9.093696142118523, 13.367802377480226, 13.367802377480226, 19.5200296080251, 25.651542268770168, 29.849695081532552, 29.849695081532552, 35.815491183879104, 40.048168279641175, 45.01966503159663, 45.01966503159663, 47.339696849175844, 50.840459145344475, 52.82215298952673, 52.82215298952673, 55.950053029298694, 57.80745945468205, 59.367957046268074, 59.367957046268074, 59.664865880065406, 59.851297008263735, 61.86061027884574, 61.86061027884574, 63.075865040434856, 64.89874718281851, 66.79758274780151, 66.79758274780151, 67.7366432453931, 68.01283750939061, 68.48927261478634, 68.48927261478634, 69.43523796897787, 70.18096248177119, 70.45715674576871, 70.45715674576871, 71.29264439436123, 71.57574351495869, 72.45266030315084, 72.45266030315084, 74.05458703433648, 73.95101418533741, 74.0753016041363, 74.0753016041363, 74.43435414733308, 74.44125900393301, 74.13744531353575, 74.13744531353575, 75.27674665252553, 76.53343055371428, 77.52772990410537, 77.36891820230679, 77.36891820230679, 76.73367139511248, 77.36201334570684, 78.86036722789342, 78.86036722789342, 79.51632860488755, 80.82134650227586, 81.58088072826905, 81.58088072826905, 82.94113747845687, 81.90540898846615, 82.83065977285786, 82.83065977285786, 83.96305625524771, 83.34852401785321, 83.17590260285476, 83.17590260285476, 83.59019399885105, 83.48662114985197, 83.48662114985197, 83.60400371205093, 82.02279155066509, 81.89159927526627, 81.89159927526627, 82.16088868266385, 81.5532613018693, 79.81323743868488, 79.81323743868488, 78.06630871890053, 79.15727606169077, 80.32419682708031, 80.32419682708031, 79.73037915948564, 77.95583101330152, 78.83274780149367, 79.27465862388972, 79.27465862388972, 79.17799063149059, 78.7084603826948, 78.6739360996951, 78.6739360996951, 78.2941689866985, 78.12154757170005, 77.57606390030493, 77.57606390030493, 77.81773388130276, 76.78200539131204, 76.78200539131204, 76.82343453091167, 79.29537319368953, 80.46229395907906, 80.46229395907906, 78.4736952582969, 77.58296875690488, 78.52893411109639, 78.52893411109639, 78.56345839409609]",79.78233537554094,1.9836951999459416,None
reward-effort-pgACC-TUS,R88533/RE002,B_6,1,2024-07-25_13h48.09.019,2024-07-25 13:51:34,None,None,3,,,4.419726562499999,1,20,avoid,shifted,heart,None,85,-20,-22,reject,0.8882536999881268,None,-22,-166,"null",None,None,None
reward-effort-pgACC-TUS,R88533/RE002,B_6,1,2024-07-25_13h48.09.019,2024-07-25 13:51:34,None,None,3,,,4.419726562499999,1,21,avoid,shifted,heart,None,70,-80,-81,accept,0.9813585999654606,success,0,-166,"[1.4154956029873174, 1.4016858897874411, 1.4224004595872555, 1.4224004595872555, 2.0369326969817494, 3.7769565601661594, 6.269609792743826, 6.269609792743826, 8.465354191524153, 13.188276105881835, 17.50381148084317, 22.661739360996954, 22.661739360996954, 27.495138980953648, 32.99830969110434, 37.69361217906227, 37.69361217906227, 41.89176499182466, 45.84134296698927, 47.40184055857529, 47.40184055857529, 50.55045516814708, 53.87859604931725, 57.22745150028725, 61.02512263025323, 61.02512263025323, 63.97349639842681, 65.12660745061648, 64.77445976401964, 64.77445976401964, 64.5535043528216, 65.89995138980956, 67.65378496619383, 67.65378496619383, 68.58594060718548, 68.12331521498962, 68.17855406778914, 68.17855406778914, 68.12331521498962, 69.03475628618146, 69.64238366697602, 71.63788722435814, 71.63788722435814, 73.19147995934422, 74.51721242653234, 75.5046069203235, 75.5046069203235, 76.4091431349154, 78.77750894869416, 78.90179636749305, 77.61058818330461, 77.61058818330461, 80.24824340448099, 82.9687569048566, 82.7132772106589, 82.7132772106589, 80.77991736267623, 80.86968049847542, 81.35302046047109, 81.35302046047109, 80.85587078527554, 79.31608776348934, 78.79822351849398, 78.79822351849398, 79.95823942728359, 80.88349021167531, 80.9387290644748, 80.9387290644748, 80.28967254408062, 79.41966061248841, 79.32989747668921, 79.95133457068366, 79.95133457068366, 80.57277166467807, 80.57967652127802, 80.06181227628267, 80.06181227628267, 80.26205311768086, 80.98706306067437, 81.69826329046799, 81.03539705687393, 81.03539705687393, 81.07682619647356, 81.68445357726813, 82.56827522206021, 82.56827522206021, 81.73969243006762, 81.30468646427153, 82.98256661805648, 82.98256661805648, 84.25996508904504, 83.99067568164746, 83.15518803305494, 82.91351805205711, 82.91351805205711, 82.60279950505989, 82.14017411286405, 81.67754872066818, 81.67754872066818, 81.25635246807195, 80.3932453930797, 80.91110963807505, 80.91110963807505, 81.40825931327059, 80.88349021167531, 79.73728401608557]",80.76690001006972,1.7620140000944957,None
reward-effort-pgACC-TUS,R88533/RE002,B_6,1,2024-07-25_13h48.09.019,2024-07-25 13:51:34,None,None,3,,,4.419726562499999,1,22,avoid,shifted,heart,None,95,-80,-75,accept,1.3904308999190107,failure,-75,-241,"[1.4776393123867606, 1.4776393123867606, 1.4914490255866368, 1.601926731185647, 2.382175526978656, 2.382175526978656, 3.942673118564674, 5.599838702549826, 6.428421494542402, 6.428421494542402, 7.13962172433603, 9.259412700517037, 12.546124442087589, 12.546124442087589, 14.659010561668659, 16.84094524724911, 19.326693623226838, 21.63291572760617, 21.63291572760617, 23.93913783198551, 26.22464536656503, 27.502043837553586, 27.502043837553586, 29.953267930531624, 33.01902426090415, 35.62906005568077, 35.62906005568077, 39.19887091784878, 42.4786778028194, 45.35109814839366, 45.35109814839366, 47.45707941137479, 49.93592293075258, 53.49882893632066, 56.7303018250917, 56.7303018250917, 57.71079146228292, 59.20224048786956, 62.171328825842956, 62.171328825842956, 63.53158557603077, 66.19686022360689, 67.81950152459235, 67.81950152459235, 69.01404171638164, 70.41572760616909, 71.18907154536215, 71.18907154536215, 71.63788722435814, 73.48838879314155, 74.13744531353575, 72.86695169914712, 72.86695169914712, 74.53102213973222, 75.34579521852491, 76.62319368951347, 76.62319368951347, 79.02608378629193, 78.56345839409609, 80.22062397808124, 80.22062397808124, 80.22062397808124, 79.14346634849089, 79.46108975208804, 79.46108975208804, 79.6337111670865, 82.0435061204649, 82.64422864465952, 82.64422864465952, 82.35422466746212, 83.08613946705556, 84.0873436740466, 84.0873436740466, 84.38425250784393, 84.69497105484115, 85.3578372884352, 85.3578372884352, 85.81355782403112, 85.7721286844315, 85.75831897123162, 85.75831897123162, 86.55928233682444, 86.20022979362766, 85.5028392770339, 85.95855981262982, 85.95855981262982, 87.12548057801936, 87.19452914401874, 87.66405939281454, 87.66405939281454, 86.89071545362147, 87.51215254761591, 87.87810994741263, 87.87810994741263, 88.1612090680101, 88.44430818860755, 88.49954704140706, 88.49954704140706, 89.41789296919883, 89.34193954659952, 88.92074329400327, 89.82527950859517, 89.82527950859517, 89.92194750099432, 90.01861549339345, 89.27979583720007, 89.27979583720007, 89.82527950859517, 88.81717044500421, 88.92074329400327, 88.92074329400327, 88.37525962260817, 87.16000486101906, 86.87000088382166, 86.87000088382166, 86.4764240576252, 85.21974015643644, 81.68445357726813, 81.68445357726813, 75.33198550532504, 64.15992752662514, 55.860289893499505, 55.860289893499505, 44.90228246939768, 36.56812055327235, 29.739217375933542, 29.739217375933542, 23.469607583189717, 18.09762914843785, 15.02496796146538, 15.02496796146538, 12.939701268284063, 11.917782491493218, 10.647288877104602, 10.647288877104602, 9.148934994918028, 7.422720844933493, 6.469850634142031, 6.469850634142031, 5.185547306553538, 4.239581952362014, 3.5145720093685098, 3.5145720093685098, 3.1486146095717893, 2.8240863493746966, 2.540987228777233, 2.382175526978656, 2.382175526978656, 2.230268681780017, 2.1266958327809453, 2.085266693181316, 2.085266693181316, 2.0438375535816875, 1.9955035573821205, 1.96097927438243, 1.9402647045826154, 1.9402647045826154, 1.967884130982368, 1.9471695611825535, 1.9333598479826772, 1.9333598479826772, 1.9333598479826772, 1.9402647045826154, 1.9540744177824916, 1.9540744177824916, 1.9402647045826154, 1.9264549913827391, 1.9264549913827391, 1.9264549913827391, 1.919550134782801, 1.9333598479826772, 1.919550134782801, 1.919550134782801, 1.9264549913827391, 1.919550134782801, 1.919550134782801, 1.919550134782801, 1.9471695611825535, 1.9747889875823061, 1.967884130982368, 1.967884130982368, 1.9816938441822443, 1.9816938441822443, 1.9747889875823061, 1.9747889875823061, 1.9471695611825535, 1.9540744177824916, 1.9333598479826772, 1.9471695611825535, 1.9471695611825535, 1.9402647045826154, 1.9471695611825535, 1.9471695611825535, 1.9540744177824916, 1.9540744177824916, 1.9540744177824916, 1.9540744177824916, 1.9471695611825535, 1.9333598479826772, 1.9333598479826772, 1.8850258517831107, 1.8850258517831107, 1.8919307083830488, 1.8850258517831107, 1.8850258517831107, 1.8850258517831107, 1.8850258517831107, 1.8712161385832342, 1.8850258517831107, 1.8850258517831107, 1.864311281983296, 1.8159772857837293, 1.7676432895841623, 1.7676432895841623, 1.6847850103849045, 1.6640704405850901, 1.6502607273852137, 1.6502607273852137, 1.6433558707852756, 1.6088315877855852, 1.5674024481859565, 1.5674024481859565, 1.505258738786513, 1.4362101727871317, 1.4016858897874411, 1.4016858897874411, 1.3740664633876887, 1.353351893587874, 1.3740664633876887, 1.3740664633876887, 1.3602567501878124, 1.353351893587874, 1.3395421803879979, 1.3395421803879979, 1.3326373237880598, 1.3395421803879979, 1.3395421803879979, 1.3395421803879979, 1.3395421803879979, 1.3326373237880598, 1.353351893587874, 1.353351893587874, 1.298113040788369, 1.3395421803879979, 1.3257324671881217, 1.3257324671881217, 1.3119227539882454, 1.3257324671881217, 1.3119227539882454, 1.3119227539882454, 1.2773984709885546, 1.2704936143886165, 1.2912081841884309, 1.2912081841884309, 1.2912081841884309, 1.2843033275884927, 1.2773984709885546, 1.2843033275884927, 1.2843033275884927, 1.2843033275884927, 1.2843033275884927, 1.2912081841884309, 1.298113040788369, 1.298113040788369, 1.2704936143886165, 1.2843033275884927, 1.2704936143886165, 1.2704936143886165, 1.2635887577886784, 1.2773984709885546, 1.2635887577886784, 1.2635887577886784, 1.2912081841884309, 1.2773984709885546, 1.298113040788369, 1.298113040788369, 1.2912081841884309, 1.2912081841884309, 1.3671616067877506, 1.3671616067877506, 1.6295461575853993, 2.8102766361748204, 5.151023023553847, 9.942993503910913, 9.942993503910913, 15.743073047858944, 21.695059437005614, 27.99919351274913, 27.99919351274913, 32.791163993106196, 37.61075389986301, 43.88726854920677, 43.88726854920677, 47.98184851297009, 49.73568208935438, 51.358323390339834, 51.358323390339834, 52.32500331433118, 52.90501126872598, 52.38714702373062, 52.38714702373062]",0,5.016006699996069,None
reward-effort-pgACC-TUS,R88533/RE002,B_6,1,2024-07-25_13h48.09.019,2024-07-25 13:51:34,None,None,3,,,4.419726562499999,1,23,avoid,shifted,heart,0.304,55,-80,-88,accept,2.2932509999955073,success,0,-241,"[1.2221596181890497, 1.2221596181890497, 1.2221596181890497, 1.235969331388926, 1.235969331388926, 1.2704936143886165, 1.857406425383358, 3.459333156569005, 3.459333156569005, 6.145322373944939, 9.100600998718459, 12.746365283485794, 12.746365283485794, 16.502607273852142, 20.590282381015516, 23.25555702859163, 28.033717795748824, 28.033717795748824, 30.664468160325253, 34.03403818109506, 37.127413937867345, 37.127413937867345, 41.325566750629726, 44.02536568120554, 45.74467497459013, 45.74467497459013, 47.443269698174916, 50.654028017146146, 53.47811436652085, 53.47811436652085, 53.968359185116455, 54.96265853550754, 56.97887666268948, 56.97887666268948, 58.194131424278595, 59.45081532546733, 60.81107207565514, 61.99180255424457, 61.99180255424457, 62.716812497238074, 62.799670776437324, 62.91705333863627, 62.91705333863627, 62.827290202837084, 63.32443987803262, 65.47875513721331, 65.47875513721331, 66.67329532900261, 66.97710901939989, 67.07377701179902, 67.07377701179902, 67.05306244199922, 67.27401785319724, 67.65378496619383, 67.81259666799241, 67.81259666799241, 67.96450351319105, 68.71713288258431, 70.08429448937206, 69.72524194617527, 69.72524194617527, 68.37879490918733, 69.07618542578109, 69.73905165937515, 69.73905165937515, 69.67000309337577, 69.68381280657565, 69.37309425957842, 69.37309425957842, 69.63547881037607, 69.30404569357904, 68.641179459985, 68.641179459985, 68.68951345618454, 68.81380087498344, 68.78618144858368, 68.74475230898406, 68.74475230898406, 68.09569578858986, 67.80569181139248, 67.99902779619073, 67.99902779619073, 68.35117548278758, 67.79878695479253, 67.49497326439526, 67.49497326439526, 67.61235582659421, 67.66068982279377, 67.17044500419817, 65.81709311061029, 65.81709311061029, 65.17494144681605, 65.7825688276106, 65.33375314861462, 65.33375314861462, 64.93327146581821, 65.3682774316143, 65.16113173361616, 65.16113173361616, 65.72042511821115, 65.97590481240887]",67.1963939007753,1.6783347999444231,None
reward-effort-pgACC-TUS,R88533/RE002,B_6,1,2024-07-25_13h48.09.019,2024-07-25 13:51:34,None,None,3,,,4.419726562499999,1,24,avoid,shifted,heart,None,100,-80,-77,accept,2.2246386000188068,success,0,-241,"[1.8712161385832342, 1.905740421582925, 1.8021675725838529, 1.8021675725838529, 1.8228821423836674, 1.967884130982368, 2.230268681780017, 2.230268681780017, 2.3062221043793367, 2.713608643775687, 2.69979893057581, 2.69979893057581, 2.685989217375934, 2.8033717795748823, 2.8309912059746347, 2.8309912059746347, 2.8240863493746966, 2.8171814927747585, 2.8240863493746966, 2.77575235317513, 2.77575235317513, 2.906944628573954, 3.1140903265720983, 3.279806884970613, 3.279806884970613, 3.5076671527685717, 3.3005214547704274, 3.0174223341729647, 3.0174223341729647, 2.692894073975872, 2.5064629457775425, 2.4926532325776662, 2.4926532325776662, 2.4443192363780994, 2.2993172477793986, 2.161220115780636, 2.07145697998144, 2.07145697998144, 1.6778801537849664, 1.084062486190287, 0.7457245127933184, 0.7457245127933184, 0.6076273807945558, 0.5040545317954838, 0.46262539219585497, 0.39357682619647366, 0.39357682619647366, 0.3866719695965355, 0.414291395996288, 0.45572053559591685, 0.45572053559591685, 0.4833399619956693, 0.5592933845949888, 0.5109593883954219, 0.5109593883954219, 0.5385788147951744, 0.6904856599938134, 0.8562022183923286, 0.8562022183923286, 1.0150139201909056, 1.2290644747889878, 1.6433558707852756, 1.8919307083830488, 1.8919307083830488, 2.1474104025807597, 2.2716978213796457, 2.326936674179151, 2.326936674179151, 2.375270670378718, 2.4581289495779757, 2.465033806177914, 2.465033806177914, 2.423604666578285, 2.382175526978656, 2.168124972380574, 2.168124972380574, 1.9126452781828631, 1.8781209951831725, 1.8505015687834199, 1.919550134782801, 1.919550134782801, 2.375270670378718, 2.7550377833753155, 2.9759931945733356, 2.9759931945733356, 3.2590923151707987, 3.3350457377701184, 3.4317137301692524, 3.4317137301692524, 3.4386185867691905, 3.997911971364179, 4.709112201157807, 4.709112201157807, 6.090083521145434, 6.849617747138629, 10.122519775509303, 10.122519775509303, 15.715453621459192, 27.874906093950248, 37.25860621326617, 46.24182464978568, 46.24182464978568, 56.01910159529808, 62.33704538424148, 67.54330726059482, 67.54330726059482, 72.31456317115207, 77.01677051570994, 79.26084891068984, 79.26084891068984, 79.06751292589156, 80.29657740068056, 82.0780304034646, 82.0780304034646, 83.8525785496487, 83.73519598744976, 85.56498298643335, 85.56498298643335, 87.82977595121307, 88.31311591320873, 89.59051438419728, 89.59051438419728, 90.90934199478546, 90.95077113438509, 90.97839056078485, 90.97839056078485, 92.96698926156704, 95.30083079234612, 96.48156127093554, 97.44824119492688, 97.44824119492688, 98.0144394361218, 98.86373679791419, 99.5335078881082, 99.5335078881082, 100.5485218082991, 101.75687171328826, 101.79139599628797, 101.79139599628797, 102.48188165628179, 102.64069335808034, 102.87545848247825, 102.87545848247825, 103.01355561447703, 104.66381634186223, 104.20119094966638, 104.20119094966638, 103.56594414247206, 103.22760616907509, 104.7121503380618, 104.22881037606612, 104.22881037606612, 104.25642980246587, 104.17357152326663, 104.76738919086131, 104.76738919086131, 105.01596402845908, 105.6374011224535, 105.88597596005127, 105.88597596005127, 106.06550223164967, 106.53503248044547, 106.4314596314464, 106.4314596314464, 106.45907905784615, 105.98954880905036, 105.97573909585047, 105.97573909585047, 106.03788280524992, 106.96313358964163, 106.35550620884706, 106.35550620884706, 105.67883026205314, 106.01716823545011, 105.98954880905036, 105.98954880905036, 106.12074108444918, 106.41764991824651, 106.22431393344824, 106.41074506164658, 106.41074506164658, 106.31407706924745, 106.22431393344824, 106.29336249944762, 106.29336249944762, 106.15526536744886, 105.92050024305098, 105.92740509965091, 105.83073710725176, 105.83073710725176, 106.16907508064874, 106.05859737504973, 105.89288081665123, 105.89288081665123, 106.41764991824651, 106.57646162004508, 106.68003446904417]",105.27800899614525,3.2886829000199214,None
reward-effort-pgACC-TUS,R88533/RE002,B_6,1,2024-07-25_13h48.09.019,2024-07-25 13:51:34,None,None,3,,,4.419726562499999,1,25,avoid,shifted,heart,None,55,-100,-115,accept,0.9111453000223264,success,0,-241,"[1.4638295991868844, 1.8297869989836055, 2.161220115780636, 2.6583697909761814, 3.1140903265720983, 3.1140903265720983, 7.685105395731143, 7.685105395731143, 9.756562375712582, 14.320672588271687, 18.857163374431043, 24.705576914578643, 24.705576914578643, 29.78064651553317, 34.7659529806885, 39.84102258164303, 39.84102258164303, 44.377513367802386, 47.084217154978134, 48.08542136196916, 48.08542136196916, 51.448086526139036, 54.01669318131602, 55.321711078704325, 55.321711078704325, 56.39196385169474, 57.835078881081806, 58.083653718679585, 58.083653718679585, 59.02271421627117, 61.46703345264927, 62.26799681824209, 62.26799681824209, 62.495857086040054, 62.46133280304036, 63.200152459233735, 66.24519421980646, 66.24519421980646, 67.27401785319724, 67.14282557779842, 67.74354810199303, 67.74354810199303, 68.39260462238721, 69.29023598037917, 68.59975032038535, 68.59975032038535, 68.91046886738256, 70.31215475717, 71.81741349595653, 71.81741349595653, 72.41813602015115, 73.08100225374521, 74.28935215873437, 74.220303592735, 74.220303592735, 71.78288921295683, 70.89906756816475, 71.25812011136154, 71.25812011136154, 70.95430642096426, 71.08549869636308, 71.0716889831632, 71.0716889831632, 70.46406160236866, 70.44334703256884, 70.82311414556544, 70.82311414556544, 70.53311016836803, 70.17405762517124, 70.00834106677274, 70.00834106677274, 70.08429448937206, 69.41452339917805, 69.01404171638164, 69.01404171638164, 68.99332714658183, 68.3373657695877, 68.03355207919043, 67.92307437359142, 67.92307437359142, 68.6066551769853, 69.4559525387777, 69.4559525387777, 69.33856997657874, 68.86213487118302, 68.23379292058863, 68.23379292058863, 68.641179459985, 68.67570374298467, 67.97140836979099, 68.30284148658802, 68.30284148658802, 70.09810420257193, 70.29834504397013, 68.53070175438599]",69.36975319993333,1.6354856999823824,None
reward-effort-pgACC-TUS,R88533/RE002,B_6,1,2024-07-25_13h48.09.019,2024-07-25 13:51:34,None,None,3,,,4.419726562499999,1,26,avoid,shifted,heart,None,65,-100,-106,accept,0.8867047000676394,success,0,-241,"[2.5824163683768617, 2.5824163683768617, 3.9150536921649213, 6.000320385346238, 7.6505811127314525, 7.6505811127314525, 11.758970789694642, 16.28165186265412, 24.581289495779757, 24.581289495779757, 28.820871448141773, 31.817579212514918, 38.114808431658496, 42.72034778381723, 42.72034778381723, 45.88967696318883, 48.11304078836891, 51.744995359936375, 51.744995359936375, 54.45169914711212, 56.17100844049672, 57.49674090768484, 57.49674090768484, 60.04463299306201, 61.370365460250135, 61.42560431304963, 61.42560431304963, 62.03323169384419, 63.220867029033556, 64.45683636042247, 64.45683636042247, 63.849208979627925, 64.32564408502365, 65.36137257501437, 66.46614963100448, 66.46614963100448, 67.42592469839587, 68.46855804498652, 68.88284944098282, 68.88284944098282, 70.61596844756728, 71.14764240576253, 71.61717265455833, 71.61717265455833, 71.23740554156173, 72.60456714834947, 74.48268814353266, 74.48268814353266, 74.53792699633215, 73.68862963453977, 74.55173670953202, 74.55173670953202, 74.68292898493085, 75.24222236952585, 74.75197755093023, 74.66221441513103, 74.66221441513103, 74.66911927173098, 74.64840470193116, 73.58505678554069, 73.58505678554069, 73.22600424234392, 73.77148791373902, 74.48959300013259, 74.57245127933184, 74.57245127933184, 74.66911927173098, 74.44125900393301, 74.33768615493395, 74.33768615493395, 74.14435017013568, 74.17196959653543, 74.51721242653234, 74.78650183392993, 74.78650183392993, 75.30436607892528, 75.20769808652615, 74.91078925272882, 74.91078925272882, 75.40793892792436, 75.7048477617217, 75.7048477617217, 75.7048477617217, 75.36650978832473, 75.73246718812145, 75.60127491272263, 75.60127491272263, 75.40793892792436, 75.69103804852182, 75.26293693932566, 75.26293693932566, 75.22841265632596, 75.54603605992311, 76.01556630871892, 76.01556630871892, 76.00866145211897, 75.7600866145212, 75.62198948252244, 75.71175261832164, 75.71175261832164, 75.25603208272572, 75.11793495072695, 75.15245923372665]",74.67357401792452,1.71994400001131,None
reward-effort-pgACC-TUS,R88533/RE002,B_6,1,2024-07-25_13h48.09.019,2024-07-25 13:51:34,None,None,3,,,4.419726562499999,1,27,avoid,shifted,heart,None,90,-20,-22,reject,0.8011357999639586,None,-22,-263,"null",None,None,None
reward-effort-pgACC-TUS,R88533/RE002,B_6,1,2024-07-25_13h48.09.019,2024-07-25 13:51:34,None,None,3,,,4.419726562499999,1,28,avoid,shifted,heart,None,85,-80,-87,accept,2.17443919996731,success,0,-263,"[1.3395421803879979, 1.3395421803879979, 1.353351893587874, 1.3395421803879979, 1.346447036987936, 1.346447036987936, 1.3740664633876887, 1.394781033187503, 1.657165583985152, 1.657165583985152, 2.3407463873790273, 2.955278624773521, 3.894339122365107, 6.048654381545806, 6.048654381545806, 8.016538512528173, 13.360897520880288, 17.3104754960449, 17.3104754960449, 22.09554111980203, 27.688474965751915, 31.07875955632154, 31.07875955632154, 35.87073003667861, 41.58104644482744, 44.57775420920059, 44.57775420920059, 47.09112201157807, 48.21661363736799, 51.97976048433427, 53.96145432851651, 53.96145432851651, 55.88790931989925, 57.46912148128509, 61.05964691325292, 61.05964691325292, 62.44061823324054, 64.2773100888241, 65.2025608732158, 65.2025608732158, 66.75615360820187, 67.65378496619383, 68.42022404878698, 68.42022404878698, 69.43523796897787, 71.81050863935658, 72.83242741614744, 72.83242741614744, 72.76337885014806, 75.22841265632596, 77.28605992310753, 78.93632065049275, 78.93632065049275, 78.28035927349862, 78.28035927349862, 79.39204118608866, 79.39204118608866, 80.22062397808124, 80.86277564187549, 80.86968049847542, 80.86968049847542, 81.02158734367406, 81.6085001546688, 81.7880264262672, 81.7880264262672, 82.66494321445933, 84.23234566264529, 85.20593044323657, 85.20593044323657, 85.10926245083743, 84.55687392284239, 85.35093243183528, 85.04021388483805, 85.04021388483805, 84.25306023244511, 83.70067170445006, 84.79163904724028, 84.79163904724028, 85.32331300543552, 84.62592248884177, 85.46831499403422, 85.46831499403422, 86.51094834062488, 86.14499094082817, 85.52355384683372, 85.52355384683372, 86.29689778602679, 87.0219077290203, 87.76763224181362, 88.83788501480403, 88.83788501480403, 90.32933404039066, 90.57790887798843, 91.19934597198286, 91.19934597198286, 92.17983560917409, 93.75414291395998, 95.05916081134829, 95.05916081134829, 95.12820937734766, 95.23868708294667, 96.10179415793894, 96.10179415793894, 96.44013213133591, 96.7094215387335, 97.40681205532725, 97.40681205532725, 97.48276547792656, 96.43322727473598, 96.17774758053827, 96.17774758053827, 97.48967033452651, 97.53109947412614, 96.81299438773257, 96.81299438773257, 97.3791926289275, 97.39300234212737, 96.6196584029343, 97.2341906403288, 97.2341906403288, 97.6346723231252, 97.53109947412614, 97.53109947412614, 97.04775951213047, 98.25610941711965, 97.44133633832695, 97.44133633832695, 96.8889478103319, 97.39300234212737, 97.35847805912769, 97.58633832692564, 97.58633832692564, 97.62086260992533, 96.58513411993461, 96.26751071633745, 96.26751071633745, 96.52989526713512, 97.16514207432941, 96.36417870873659, 95.95679216934025, 95.95679216934025, 95.79798046754166, 95.52178620354414, 95.52178620354414, 94.89344425294976, 93.94747889875823, 93.17413495956518, 91.32363339078175, 91.32363339078175, 90.45362145918955]",95.55268826668815,2.5013096999609843,None
reward-effort-pgACC-TUS,R88533/RE002,B_6,1,2024-07-25_13h48.09.019,2024-07-25 13:51:34,None,None,3,,,4.419726562499999,1,29,avoid,shifted,heart,None,60,-60,-63,accept,0.7097006000112742,success,0,-263,"[1.705499580184719, 1.705499580184719, 1.7124044367846571, 1.7400238631844096, 1.9747889875823061, 1.9747889875823061, 2.485748375977728, 3.4040943037694995, 5.434122144151312, 7.0360488753369586, 7.0360488753369586, 10.757766582703612, 16.633799549250963, 21.591486588006546, 21.591486588006546, 28.282292633346596, 32.01091519731319, 36.4852622740731, 36.4852622740731, 39.24720491404835, 42.10581554642274, 45.99324981218791, 45.99324981218791, 48.00946793936984, 48.77590702196298, 49.50782182155642, 49.50782182155642, 52.221430465332105, 54.64503513191039, 56.9098280966901, 56.9098280966901, 57.88341287728137, 61.45322373944939, 62.9032436254364, 62.9032436254364, 65.18875116001593, 67.08068186839897, 67.79878695479253, 67.79878695479253, 69.31095055017899, 70.11191391577181, 71.75526978655708, 71.75526978655708, 72.34908745415176, 72.57004286534978, 73.26743338194353, 73.26743338194353, 72.45956515975077, 72.37670688055151, 72.76337885014806, 72.76337885014806, 71.90027177515579, 70.54691988156792, 71.22359582836185, 71.22359582836185, 71.3064541075611, 69.84262450837421, 69.78048079897478, 70.50549074196827, 70.50549074196827, 70.56072959476779, 69.97381678377305, 69.97381678377305, 68.55832118078573, 68.52379689778604, 68.32355605638783, 68.32355605638783, 68.13022007158956, 68.71713288258431, 68.05426664899025, 67.89545494719167, 67.89545494719167, 68.58594060718548, 70.20858190817094, 70.19477219497107, 70.19477219497107, 69.52500110477706, 69.16594856158028, 69.05547085598127, 69.05547085598127, 69.75976622917497, 70.5262053117681, 70.3466790401697, 70.3466790401697, 70.38810817976933, 70.83692385876532, 70.47096645896859, 70.47096645896859, 69.29714083697911, 68.63427460338505, 68.69641831278449, 68.69641831278449, 69.1521388483804, 69.39380882937824, 68.67570374298467, 68.64808431658493, 68.64808431658493]",69.96996817517633,1.6163328000111505,None
reward-effort-pgACC-TUS,R88533/RE002,B_6,1,2024-07-25_13h48.09.019,2024-07-25 13:51:34,None,None,3,,,4.419726562499999,1,30,avoid,shifted,heart,None,55,-20,-18,reject,1.0645829000277445,None,-18,-281,"null",None,None,None
reward-effort-pgACC-TUS,R88533/RE002,B_6,1,2024-07-25_13h48.09.019,2024-07-25 13:51:34,None,None,3,,,4.419726562499999,1,31,avoid,shifted,heart,0.37,100,-100,-89,accept,2.8220873000100255,success,0,-281,"[1.8366918555835436, 2.0921715497812543, 2.8033717795748823, 3.6043351451677057, 5.316739581952363, 5.316739581952363, 7.0291440187370196, 10.440143179106459, 13.139942109682268, 13.139942109682268, 17.655718326041807, 22.330306244199924, 27.301802996155377, 27.301802996155377, 33.73022449069778, 37.92837730346017, 42.306056387820945, 42.306056387820945, 47.408745415175225, 51.60689822793761, 55.970767599098515, 55.970767599098515, 57.24126121348713, 59.754629015864616, 63.372773874232195, 65.03684431481727, 65.03684431481727, 67.39830527199612, 68.73784745238412, 71.4859803791595, 71.4859803791595, 73.70934420433957, 74.24101816253481, 75.74627690132132, 75.74627690132132, 78.2044058508993, 79.68204516328606, 81.22182818507227, 81.22182818507227, 83.62471828185075, 85.30950329223565, 86.34523178222636, 86.34523178222636, 87.22905342701844, 88.36835476600824, 88.7412170224049, 88.7412170224049, 90.28100004419109, 90.59171859118831, 91.51006451898009, 93.72652348756021, 93.72652348756021, 94.85201511335013, 95.4044036413452, 96.57822926333466, 96.57822926333466, 96.59894383313448, 96.77847010473289, 97.17895178752929, 97.17895178752929, 98.83611737151445, 98.41492111891822, 99.18136020151135, 99.18136020151135, 100.5485218082991, 99.92708471430467, 100.32066154050115, 100.32066154050115, 101.02495691369484, 101.73615714348847, 101.95020769808653, 102.5578350788811, 102.5578350788811, 103.13784303327591, 103.28974987847455, 104.69834062486191, 104.69834062486191, 104.62929205886253, 104.59476777586285, 105.60978169605374, 105.60978169605374, 105.56144769985418, 105.80311768085203, 106.12764594104911, 106.57646162004508, 106.57646162004508, 106.27955278624775, 106.141455654249, 107.64671439303551, 107.64671439303551, 108.55815546422734, 108.08862521543155, 108.50982146802777, 108.50982146802777, 108.9655420036237, 109.00697114322331, 109.00006628662338, 109.00006628662338, 109.26935569402096, 109.7803150824164, 110.11865305581337, 110.11865305581337, 109.29007026382078, 109.75960051261657, 110.07722391621373, 110.07722391621373, 109.33840426002035, 109.87698307481553, 110.28436961421187, 110.28436961421187, 110.89199699500642, 111.05771355340495, 110.78842414600736, 110.91271156480624, 110.91271156480624, 111.67224579079944, 111.60319722480006, 111.36843210040215, 111.36843210040215, 111.93463034159707, 112.0312983339962, 112.6596402845906, 112.6596402845906, 112.57678200539134, 112.92892969198817, 112.77011799018959, 112.77011799018959, 113.10155110698663, 114.08204074417785, 113.93013389897921]",108.74368103746171,2.1667236000066623,None
reward-effort-pgACC-TUS,R88533/RE002,B_6,1,2024-07-25_13h48.09.019,2024-07-25 13:51:34,None,None,3,,,4.419726562499999,1,32,avoid,shifted,heart,None,80,-40,-36,accept,1.4404788999818265,success,0,-281,"[1.9126452781828631, 1.905740421582925, 1.905740421582925, 2.175029828980512, 2.175029828980512, 2.644560077776305, 3.4938574395686954, 5.599838702549826, 5.599838702549826, 7.450340271333246, 12.656602147686598, 16.909993813248487, 16.909993813248487, 21.287672897609266, 26.500839630562556, 30.07065049273057, 30.07065049273057, 36.96860223606876, 41.62938044102701, 46.987549162579, 46.987549162579, 50.43307260594813, 54.16860002651466, 56.77863582129127, 56.77863582129127, 57.46912148128509, 60.29320783065978, 62.64085907463874, 67.05306244199922, 67.05306244199922, 68.45474833178665, 69.68381280657565, 71.49979009235938, 71.49979009235938, 72.50789915595034, 73.17767024614434, 73.64720049494014, 73.64720049494014, 75.68413319192189, 76.2848557161165, 77.66582703610413, 78.64631667329535, 78.64631667329535, 78.34250298289807, 78.16297671129966, 78.16297671129966, 79.11584692209114, 79.29537319368953, 80.44157938927925, 81.76731185646737, 81.76731185646737, 82.29898581466261, 83.05852004065582, 82.97566176145655, 82.97566176145655, 82.65113350125945, 83.37614344425296, 83.83186397984888, 83.83186397984888, 83.5487648592514, 84.3428233682443, 84.37044279464405, 84.37044279464405, 84.01139025144727, 84.17020195324585, 83.98377082504751, 83.98377082504751, 84.19091652304567, 85.05402359803793, 85.3371227186354, 85.3371227186354, 85.3371227186354, 85.51664899023379, 85.42688585443459, 85.42688585443459, 85.52355384683372, 86.04141809182909, 86.60761633302401, 86.60761633302401, 85.827367537231, 86.0621326616289, 86.20022979362766, 86.20022979362766, 86.93904944982104, 86.78023774802246, 87.4016748420169, 87.4569136948164, 87.4569136948164, 86.89071545362147, 87.70548853241418, 88.76193159220472, 88.76193159220472, 88.49954704140706, 87.9816827964117, 89.34884440319945, 89.34884440319945, 90.34314375359054, 89.61813381059703, 89.24527155420037, 89.24527155420037, 90.41909717618985, 90.56409916478856, 90.84719828538603, 90.84719828538603, 90.6055283043882, 91.51006451898009, 91.83459277917719, 91.83459277917719, 91.33744310398163, 90.82648371558622, 90.79886428918645, 90.75053029298688, 90.75053029298688, 90.15671262539222, 90.12218834239252, 89.90813778779444, 89.90813778779444, 89.73551637279598, 89.3212249767997, 89.78385036899556, 89.78385036899556]",87.9239536674614,2.00356889993418,None
reward-effort-pgACC-TUS,R88533/RE002,B_6,1,2024-07-25_13h48.09.019,2024-07-25 13:51:34,None,None,3,,,4.419726562499999,1,33,avoid,shifted,heart,None,100,-80,-63,accept,3.3646736999507993,failure,-63,-344,"[32.432111449909414, 36.93407795306908, 36.93407795306908, 40.14483627204031, 43.8182199832074, 43.8182199832074, 48.796621591762786, 52.85667727252641, 56.7303018250917, 56.7303018250917, 60.63845066065669, 62.40609395024085, 64.8780326130187, 64.8780326130187, 66.6525807592028, 69.00023200318176, 70.79549471916569, 70.79549471916569, 70.62977816076716, 71.46526580935968, 74.80721640372974, 74.80721640372974, 75.73937204472139, 75.29746122232535, 76.17437801051749, 76.93391223651068, 76.93391223651068, 78.48060011489683, 79.24013434089002, 80.13086084228203, 80.13086084228203, 82.64422864465952, 84.04591453444696, 83.94924654204783, 83.94924654204783, 84.40496707764375, 84.64663705864159, 84.86759246983961, 84.86759246983961, 85.43379071103453, 85.61331698263291, 86.42809006142562, 86.42809006142562, 86.66285518582352, 86.22784922002741, 87.8919196606125, 87.8919196606125, 88.65835874320564, 88.17501878120997, 88.44430818860755, 89.6664678067966, 89.6664678067966, 90.12218834239252, 89.89432807459457, 90.626242874188, 90.626242874188, 90.736720579787, 90.9714857041849, 90.70910115338727, 90.70910115338727, 89.88051836139469, 90.57790887798843, 90.88862742498566, 90.88862742498566, 92.02102390737551, 91.73792478677805, 91.48934994918027, 91.48934994918027, 91.48244509258033, 92.87722612576783, 92.5457930089708, 92.07626276017501, 92.07626276017501, 92.2557890317734, 93.49866321976226, 93.95438375535818, 93.95438375535818, 93.87843033275887, 94.25129258915553, 94.37558000795441, 94.37558000795441, 94.29962658535509, 94.60344027575238, 94.40319943435416, 94.40319943435416, 94.70010826815151, 94.94868310574928, 95.01773167174865, 95.73583675814223, 95.73583675814223, 95.7496464713421, 95.83250475054136, 95.9291727429405, 95.9291727429405, 96.11560387113882, 96.32274956913697, 96.44703698793585, 96.92347209333158, 96.92347209333158, 96.60584868973443, 96.15703301073845, 96.543704980335, 96.543704980335, 96.35036899553671, 95.92226788634055, 95.7151221883424, 95.28011622254631, 95.28011622254631, 95.77036104114191, 95.68059790534271, 94.96939767554909, 94.96939767554909, 94.21676830615583, 91.82768792257724, 91.28910910778207, 91.28910910778207, 90.77814971938665, 90.14290291219234, 89.53527553139777, 89.53527553139777, 89.05884042600205, 88.42359361880774, 87.93334880021213, 87.8021565248133, 87.8021565248133, 87.13929029121925, 86.497138627425, 86.59380661982414, 86.59380661982414, 86.53856776702463, 86.55237748022451, 86.55237748022451, 86.55237748022451, 87.0219077290203, 89.34193954659952, 90.01171063679351, 90.01171063679351, 89.87361350479475, 90.12909319899246, 90.52957488178886, 90.52957488178886, 91.05434398338417, 91.95197534137613, 92.93246497856734, 92.93246497856734, 93.16032524636529, 94.32724601175484, 95.72202704494235, 95.72202704494235, 96.01203102213974, 96.13631844093864, 96.0396504485395, 96.03274559193956, 96.03274559193956, 96.52989526713512, 96.80608953113263, 96.79227981793275, 96.79227981793275, 98.81540280171463, 98.35968226611871, 95.84631446374124, 95.84631446374124, 95.66678819214283, 96.39870299173629, 96.23298643333776, 96.23298643333776, 95.48726192054446, 96.06036501833931, 96.99252065933096, 97.24800035352868, 97.24800035352868, 97.323953776128, 97.83491316452341, 98.75325909231518, 98.75325909231518, 98.72563966591544, 99.1192164921119, 99.80970215210571, 99.80970215210571, 99.63708073710727, 99.81660700870566, 101.5428211586902, 101.5428211586902, 100.88685978169607, 100.42423438950021, 100.7487626496973, 100.7280480798975, 100.7280480798975, 101.7983008528879, 101.99163683768617, 102.15735339608469, 102.15735339608469, 102.44045251668214, 103.86975783286934, 104.0976181006673, 104.55333863626322, 104.55333863626322, 104.7328649078616, 105.57525741305408, 105.51311370365461, 105.51311370365461, 105.64430597905346, 106.0724070882496, 106.11383622784925, 106.11383622784925, 106.27955278624775, 106.38312563524683, 105.27834857925673, 105.60287683945381, 105.60287683945381, 106.30026735604756, 106.14836051084893, 106.03097794864998, 106.03097794864998, 105.85145167705159, 105.68573511865307, 106.09312165804943, 106.09312165804943, 106.41074506164658, 106.36931592204695, 106.12074108444918, 106.12074108444918, 106.05859737504973, 106.251933359848, 106.13455079764904, 105.68573511865307, 105.68573511865307, 106.03097794864998, 106.22431393344824, 104.98834460205933, 104.98834460205933, 103.26903530867473, 102.88236333907818, 101.95711255468649, 101.95711255468649, 101.81901542268773, 101.91568341508686, 102.012351407486, 102.05378054708561, 102.05378054708561, 101.84663484908747, 101.88806398868711, 101.83972999248753, 101.83972999248753, 101.79139599628797, 99.70612930310665, 98.49087454151754, 98.3389676963189, 98.3389676963189, 97.25490521012861, 94.31343629855496, 91.26839453798225, 91.26839453798225, 88.78955101860446, 84.1632970966459, 78.45298068849708, 78.45298068849708, 68.96570772018208, 59.071048212470735, 47.74708338857219, 47.74708338857219, 39.129822351849405, 32.894736842105274, 26.231550223164966, 26.231550223164966, 20.769808652613904, 16.226413009854614, 12.387312740289012, 9.797991515312212, 9.797991515312212, 8.037253082327988, 6.676996332140176, 5.841508683547661, 5.841508683547661, 5.1786424499536, 4.412203367360467, 3.997911971364179, 3.997911971364179, 3.818385699765788, 3.7355274205665303, 3.618144858367582, 3.562906005568077, 3.562906005568077, 3.4938574395686954, 3.466238013168943, 3.417904016969376, 3.417904016969376, 3.3971894471695614, 3.369570020769809, 3.3281408811701803, 3.3281408811701803, 3.2452826019709233, 3.18313889257148, 3.1624243227716655, 3.1624243227716655, 3.1140903265720983, 3.086470900172346, 3.0588514737725934, 3.0588514737725934, 3.024327190772903]",0,5.001149000017904,None
reward-effort-pgACC-TUS,R88533/RE002,B_6,1,2024-07-25_13h48.09.019,2024-07-25 13:51:34,None,None,3,,,4.419726562499999,1,34,avoid,shifted,heart,None,100,-60,-63,reject,0.9518104000017047,None,-63,-407,"null",None,None,None
reward-effort-pgACC-TUS,R88533/RE002,B_6,1,2024-07-25_13h48.09.019,2024-07-25 13:51:34,None,None,3,,,4.419726562499999,1,35,avoid,shifted,heart,None,65,-20,-19,accept,2.9174650000641122,success,0,-407,"[2.0576472667815637, 2.0576472667815637, 2.078361836581378, 2.078361836581378, 2.078361836581378, 2.216458968580141, 2.5133678023774806, 2.5133678023774806, 2.934564054973707, 3.7010031375668397, 4.791970480357064, 4.791970480357064, 6.54580405674135, 9.376795262715985, 12.456361306288393, 12.456361306288393, 16.371414998453314, 20.707664943214464, 25.037010031375672, 25.037010031375672, 27.688474965751915, 31.27209554111981, 34.55190242609042, 34.55190242609042, 37.32765477926555, 38.45314640505546, 40.46245967563746, 40.46245967563746, 41.62938044102701, 42.49939237261921, 43.45226258341067, 45.46848071059261, 45.46848071059261, 47.374221132175535, 49.307580980158214, 49.307580980158214, 50.34330947014893, 52.49762472932963, 54.01669318131602, 54.01669318131602, 56.94435237968979, 57.06173494188873, 57.04102037208892, 57.04102037208892, 60.086062132661645, 61.98489769764463, 62.95157762163597, 64.38778779442309, 64.38778779442309, 65.94138052940917, 67.7573578151929, 68.26831720358832, 68.26831720358832, 69.28333112377923, 71.93479605815548, 72.33527774095188, 72.33527774095188, 72.50789915595034, 72.23860974855275, 74.41363957753326, 74.41363957753326, 75.08341066772726, 72.60456714834947, 73.52291307614125, 73.52291307614125, 75.15245923372665, 75.80842061072077, 75.45627292412392, 75.45627292412392, 75.14555437712671, 75.76699147112113, 76.16056829731761, 76.16056829731761, 75.5253214901233, 76.2848557161165, 76.69914711211278, 76.69914711211278, 76.27795085951657, 75.68413319192189, 75.5253214901233, 75.5253214901233, 76.13294887091786, 76.16056829731761, 76.06390030491848, 76.06390030491848, 75.31127093552522, 75.18698351672633, 75.35270007512486, 75.35270007512486, 75.58746519952275, 75.66341862212207, 76.03628087851872, 75.9050886031199, 75.9050886031199, 75.98104202571922, 76.3193799991162, 76.3746188519157, 76.3746188519157, 76.01556630871892, 76.05699544831855, 76.02247116531885, 76.02247116531885, 75.53222634672323, 75.18698351672633, 74.97983781872819, 74.97983781872819, 75.34579521852491, 75.53222634672323, 75.02817181492776, 75.02817181492776, 74.15815988333556, 74.37911529453358, 74.74507269433029, 74.74507269433029, 73.94410932873747, 72.70123514074861]",75.13575393550101,1.917156699928455,None
reward-effort-pgACC-TUS,R88533/RE002,B_6,1,2024-07-25_13h48.09.019,2024-07-25 13:51:34,None,None,3,,,4.419726562499999,1,36,avoid,shifted,heart,None,95,-60,-58,reject,1.8781510000117123,None,-58,-465,"null",None,None,None
reward-effort-pgACC-TUS,R88533/RE002,B_6,1,2024-07-25_13h48.09.019,2024-07-25 13:51:34,None,None,3,,,4.419726562499999,1,37,avoid,shifted,heart,None,60,-20,-19,accept,3.020187999936752,success,0,-465,"[24.816054620177653, 24.816054620177653, 20.5695678112157, 20.5695678112157, 18.415252552035003, 17.586669760042426, 17.151663794246325, 17.151663794246325, 17.09642494144682, 17.103329798046758, 17.103329798046758, 17.234522073445582, 16.813325820849357, 16.723562685050158, 18.014770869238593, 18.014770869238593, 20.831952362013347, 24.367238941181675, 28.468723761544922, 28.468723761544922, 33.9511799018958, 41.684619293826515, 47.31207742277609, 47.31207742277609, 51.4066573865394, 56.01910159529808, 59.67177073666535, 59.67177073666535, 63.165628176234044, 65.30613372221487, 67.50878297759513, 67.50878297759513, 69.3869039727783, 70.84382871536525, 70.84382871536525, 72.54932829554997, 72.70813999734854, 72.95671483494633, 72.95671483494633, 72.98433426134608, 71.94170091475542, 71.18907154536215, 71.18907154536215, 71.70003093375757, 72.63909143134917, 73.56434221574088, 73.56434221574088, 72.94980997834638, 71.23050068496178, 70.5814441645676, 71.61717265455833, 71.61717265455833, 70.72644615316631, 68.9864222899819, 69.58023995757657, 69.58023995757657, 71.46526580935968, 70.44334703256884, 69.98762649697292, 69.98762649697292, 70.6366830173671, 70.85073357196518, 70.26382076097045, 70.26382076097045, 71.58955322815856, 72.11432232975386, 72.34908745415176, 72.34908745415176, 71.70693579035752, 71.0509744133634, 71.20978611516198, 71.20978611516198, 71.16145211896242, 71.9762251977551, 72.50789915595034, 71.89336691855584, 71.89336691855584, 71.46526580935968, 71.83812806575635, 71.76217464315701, 71.76217464315701, 71.23740554156173, 70.77478014936587, 71.22359582836185, 71.22359582836185, 71.23740554156173, 71.54121923195899, 71.98313005435504, 71.98313005435504, 70.76097043616599, 69.84262450837421]",71.28607912087271,1.5024102999595925,None
reward-effort-pgACC-TUS,R88533/RE002,B_6,1,2024-07-25_13h48.09.019,2024-07-25 13:51:34,None,None,3,,,4.419726562499999,1,38,avoid,shifted,heart,None,50,-80,-84,accept,1.6515201999573037,success,0,-465,"[2.7550377833753155, 3.797671129965974, 5.5445998497503215, 6.91866631313801, 6.91866631313801, 9.514892394714748, 13.271134385081092, 16.56475098325158, 16.56475098325158, 20.797428079013656, 25.817258827168683, 28.95896858014053, 28.95896858014053, 34.77976269388838, 37.61765875646295, 41.80200185602546, 41.80200185602546, 45.30966900879403, 47.74708338857219, 50.515930885147384, 53.305492951522396, 53.305492951522396, 56.17100844049672, 56.61291926289276, 57.324119492686386, 57.324119492686386, 60.54868752485749, 61.549891731848525, 61.9987074108445, 61.9987074108445, 63.1932476026338, 65.09208316761679, 65.72042511821115, 65.72042511821115, 65.50637456361306, 65.85161739360998, 66.23138450660657, 66.23138450660657, 65.68590083521147, 65.35446771841443, 65.54780370321271, 66.92877502320033, 66.92877502320033, 67.53640240399488, 67.37759070219631, 67.412114985196, 67.412114985196, 66.17614565380707, 65.96899995580893, 64.20135666622477, 64.20135666622477, 63.56610985903046, 64.31873922842371, 63.372773874232195, 63.372773874232195, 64.58112377922136, 66.85972645720095, 65.99661938220868, 64.81588890361925, 64.81588890361925, 64.2635003756242, 63.745636130628846, 64.37397808122321, 64.37397808122321, 64.9677957488179, 63.64896813822971, 63.64896813822971, 63.09657961023466, 62.875624199036636, 62.261091961642144, 62.261091961642144, 61.78465685624642, 61.61203544124797, 61.515367448848835, 60.051537849661955, 60.051537849661955, 59.07795306907067, 59.02961907287111, 59.33343276326838, 59.33343276326838, 58.67056652967432, 58.43580140527642, 59.402481329267765, 59.402481329267765, 61.52917716204871, 61.957278271244874, 61.522272305448766]",63.513134893640775,1.4542178999399766,None
reward-effort-pgACC-TUS,R88533/RE002,B_6,1,2024-07-25_13h48.09.019,2024-07-25 13:51:34,None,None,3,,,4.419726562499999,1,39,avoid,shifted,heart,None,90,-100,-93,accept,1.772873600013554,success,0,-465,"[7.429625701533432, 7.105097441336339, 6.891046886738257, 6.891046886738257, 6.835808033938752, 6.676996332140176, 6.566518626541165, 6.449136064342217, 6.449136064342217, 6.386992354942773, 6.297229219143579, 6.048654381545806, 6.048654381545806, 5.862223253347476, 5.820794113747847, 5.9727009589464854, 5.9727009589464854, 5.979605815546424, 6.311038932343455, 6.642472049140484, 6.642472049140484, 7.015334305537143, 7.43653055813337, 7.823202527729905, 7.823202527729905, 8.272018206725884, 9.887754651111408, 12.760174996685672, 16.944518096248178, 16.944518096248178, 23.987471828185075, 28.58610632374387, 34.103086747094444, 37.203367360466665, 37.203367360466665, 42.02986212382342, 46.317778072385, 49.63901409695524, 49.63901409695524, 56.378154138494864, 59.81677272526406, 62.08847054664369, 62.08847054664369, 63.35205930443237, 66.3073379292059, 68.48927261478634, 68.48927261478634, 70.59525387776748, 73.77839277033895, 75.01436210172788, 75.01436210172788, 75.09722038092714, 73.49529364974148, 75.2007932299262, 77.74868531530339, 77.74868531530339, 78.71536523929473, 79.08822749569137, 80.62801051747759, 80.62801051747759, 81.4842127358699, 81.80183613946707, 83.03090061425605, 83.03090061425605, 83.51424057625174, 85.00568960183837, 85.17831101683682, 85.3578372884352, 85.3578372884352, 87.2221485704185, 88.69978788280525, 90.04623491979319, 90.04623491979319, 90.30171461399091, 89.92194750099432, 91.22006054178269, 91.22006054178269, 92.10388218657477, 91.3167285341818, 90.97839056078485, 90.97839056078485, 93.07746696716605, 93.6850943479606, 91.855307348977, 90.30861947059084, 90.30861947059084, 91.05434398338417, 92.2005501789739, 91.55839851517965, 91.55839851517965, 91.51696937558003, 94.38248486455436, 94.70701312475144, 94.70701312475144, 94.83820540015027, 94.05105174775731, 95.48035706394451, 95.48035706394451, 96.79227981793275, 96.06036501833931, 94.40319943435416, 94.40319943435416, 95.6598833355429, 96.15012815413851, 96.06726987493926, 96.06726987493926, 96.62656325953424, 97.89015201732292, 97.16514207432941, 97.16514207432941, 96.78537496133282, 98.75325909231518, 97.82800830792347, 97.82800830792347, 99.3539816165098, 99.82351186530559, 101.12162490609397, 101.12162490609397, 100.41042467630035, 101.88115913208715, 101.82592027928766, 101.79139599628797, 101.79139599628797, 100.80400150249682, 102.51640593928147, 103.2621304520748, 103.2621304520748, 101.80520570948784, 101.22519775509305, 102.09520968668524, 102.09520968668524, 101.7085377170887, 99.27802819391049, 99.30564762031024, 99.30564762031024, 100.15494498210262, 99.83041672190554, 99.07088249591234, 99.07088249591234, 98.5737328207168, 98.3389676963189, 98.94659507711346, 98.02824914932168, 98.02824914932168, 97.75205488532416, 99.22278934111098, 98.96730964691326, 98.96730964691326, 97.73134031552433, 96.91656723673164, 96.79227981793275, 96.79227981793275]",98.4960814825601,2.5412547000451013,None
reward-effort-pgACC-TUS,R88533/RE002,B_6,1,2024-07-25_13h48.09.019,2024-07-25 13:51:34,None,None,3,,,4.419726562499999,1,40,avoid,shifted,heart,0.374,75,-100,-98,accept,0.7589880999876186,success,0,-465,"[2.099076406381193, 2.237173538379955, 2.237173538379955, 2.4443192363780994, 2.685989217375934, 3.0726611869724696, 3.0726611869724696, 3.3419505943700565, 4.729826770957621, 6.400802068142649, 6.400802068142649, 7.519388837332627, 10.964912280701757, 14.700439701268287, 14.700439701268287, 21.701964293605556, 26.770129037960146, 32.63925714790756, 32.63925714790756, 39.7443545892439, 44.273940518803315, 48.00946793936984, 53.6507357815193, 53.6507357815193, 55.88790931989925, 56.70268239869195, 59.699390163065104, 62.21275796544259, 62.21275796544259, 62.281806531441966, 62.92395819523621, 64.80207919041938, 64.80207919041938, 67.86783552079191, 69.30404569357904, 70.0566750629723, 71.24431039816166, 71.24431039816166, 72.66671085774891, 74.44816386053296, 74.44816386053296, 75.62889433912238, 75.92580317291971, 75.93270802951966, 77.28605992310753, 77.28605992310753, 78.30797869989837, 79.56466260108711, 80.22062397808124, 80.22062397808124, 81.26325732467188, 82.57518007866014, 83.80424455344912, 83.80424455344912, 84.11496310044633, 84.01139025144727, 85.30950329223565, 85.30950329223565, 85.46831499403422, 85.44760042423441, 85.78593839763137, 86.88381059702154, 86.88381059702154, 87.27048256661807, 87.16000486101906, 86.27618321622698, 86.27618321622698, 85.7376044014318, 85.90332095983032, 85.17140616023687, 85.17140616023687, 84.91592646603917, 84.36353793804412, 83.94234168544789, 83.94234168544789, 84.34972822484424, 84.80544876044016, 84.65354191524152, 84.42568164744357, 84.42568164744357, 84.19091652304567, 84.17020195324585, 84.43949136064344, 84.43949136064344, 82.90661319545717, 82.98947147465643, 83.21733174245438, 83.21733174245438, 83.23114145565427, 82.478512086261, 82.33351009766231, 82.33351009766231, 82.34731981086219, 81.81564585266695, 81.12516019267314, 81.62921472446861, 81.62921472446861, 82.21612753546336, 82.02969640726504, 82.20231782226348, 82.20231782226348, 82.14707896946398, 81.91921870166603, 81.83636042246675, 81.83636042246675, 80.83515621547573, 82.11255468646429, 83.85948340624864, 82.94113747845687]",83.61436099695085,1.817542599979788,None
reward-effort-pgACC-TUS,R88533/RE002,B_6,1,2024-07-25_13h48.09.019,2024-07-25 13:51:34,None,None,3,,,4.419726562499999,1,41,avoid,shifted,heart,None,100,-60,-72,reject,1.2222288000630215,None,-72,-537,"null",None,None,None
reward-effort-pgACC-TUS,R88533/RE002,B_6,1,2024-07-25_13h48.09.019,2024-07-25 13:51:34,None,None,3,,,4.419726562499999,1,42,avoid,shifted,heart,None,75,-40,-41,accept,2.329423399991356,success,0,-537,"[1.8435967121834818, 2.237173538379955, 2.237173538379955, 3.480047726368819, 6.99461973573733, 10.723242299703921, 10.723242299703921, 14.424245437270761, 21.135766052410627, 25.810353970568745, 29.732312519333604, 29.732312519333604, 33.4264108003005, 36.93407795306908, 40.0895974192408, 40.0895974192408, 43.16916346281321, 47.46398426797473, 48.92090901056167, 48.92090901056167, 50.57116973794689, 52.57357815192895, 53.83026205311769, 53.83026205311769, 55.64623933890142, 56.958162092889665, 59.19533563126962, 59.19533563126962, 60.19653983826064, 60.99059834725353, 61.88822970524549, 61.88822970524549, 62.392284237040975, 63.283010738433, 64.47755093022229, 66.9218701666004, 66.9218701666004, 67.88855009059172, 67.85402580759204, 67.85402580759204, 67.58473640019446, 68.66879888638474, 68.5168920411861, 68.10260064518981, 68.10260064518981, 68.641179459985, 68.34427062618764, 67.55711697379469, 67.55711697379469, 67.40521012859605, 67.1773498607981, 67.1221110079986, 67.1221110079986, 66.75615360820187, 67.77116752839278, 68.44784347518672, 68.44784347518672, 68.41331919218703, 70.31905961376995, 72.54242343895004, 72.54242343895004, 74.71745326793055, 75.17317380352647, 75.55984577312299, 76.11913915771798, 76.11913915771798, 78.04559414910072, 79.80633258208495, 77.75559017190332, 77.75559017190332, 77.70725617570375, 80.14467055548191, 80.28276768748069, 80.28276768748069, 79.4887091784878, 80.27586283088074, 81.22182818507227, 81.22182818507227, 82.4232732334615, 81.29778160767158, 80.74539307967653, 80.74539307967653, 82.86518405585754, 83.99758053824739, 83.45209686685229, 84.75020990764065, 84.75020990764065, 85.58569755623317, 86.2623735030271, 86.12427637102834, 86.12427637102834, 86.7871426046224, 87.04952715542005, 87.24976799681826, 87.24976799681826, 86.18642008042778, 87.88501480401256, 88.84478987140396, 88.84478987140396, 88.61002474700607, 87.13929029121925, 86.91143002342129, 86.91143002342129, 87.24976799681826, 85.69617526183218, 85.60641212603298, 85.60641212603298, 86.42809006142562, 86.21403950682753, 85.62712669583279, 85.62712669583279, 85.72379468823192, 86.00689380882939, 84.59139820584207, 82.67184807105927, 82.67184807105927, 83.30019002165365, 83.98377082504751, 83.14828317645501, 83.14828317645501, 82.63732378805958, 82.90661319545717, 82.67184807105927, 82.67184807105927, 82.43017809006143, 82.69946749745903, 82.83065977285786, 82.59589464845996, 82.59589464845996, 82.43708294666138, 81.8985041318662, 82.01588669406516, 82.01588669406516]",84.1519374938525,2.2063699000282213,None
reward-effort-pgACC-TUS,R88533/RE002,B_6,1,2024-07-25_13h48.09.019,2024-07-25 13:51:34,None,None,3,,,4.419726562499999,1,43,avoid,shifted,heart,None,80,-80,-68,accept,3.7476937000174075,success,0,-537,"[10.978721993901633, 9.16964956471784, 8.06487250872774, 8.06487250872774, 7.181050863935659, 6.801283750939062, 6.801283750939062, 6.690806045340052, 6.953190596137701, 7.912965663529101, 7.912965663529101, 11.323964823898539, 15.321876795262718, 20.659330947014894, 20.659330947014894, 25.45130142737196, 28.86920544434134, 33.164026249502854, 38.46695611825534, 38.46695611825534, 44.34989394140263, 49.69425294975475, 53.60930664191967, 53.60930664191967, 57.586504043484034, 61.163219762251984, 61.922753988245184, 61.922753988245184, 63.26229616863318, 64.69850634142031, 66.53519819700385, 66.53519819700385, 66.85972645720095, 68.06807636219013, 70.19477219497107, 71.8312232091564, 71.8312232091564, 71.88646206195591, 72.19027575235319, 74.7105484113306, 74.7105484113306, 75.670323478722, 75.44246321092405, 76.23652171991692, 76.23652171991692, 77.04438994210969, 76.6646228291131, 76.38842856511557, 76.38842856511557, 77.4793959079058, 78.349407839498, 78.17678642449954, 79.19180034469045, 79.19180034469045, 80.34491139688012, 80.51062795527864, 80.63491537407752, 80.63491537407752, 81.10444562287333, 81.85707499226658, 84.03900967784702, 84.03900967784702, 84.33591851164437, 84.88830703963941, 85.48212470723409, 84.43949136064344, 84.43949136064344, 82.61660921825977, 83.71448141764994, 85.66165097883248, 85.66165097883248, 85.70998497503204, 84.98497503203855, 86.17951522382783, 86.17951522382783, 86.25546864642718, 85.10926245083743, 85.55807812983342, 85.55807812983342, 85.76522382783156, 86.15880065402803, 86.42118520482568, 87.81596623801319, 87.81596623801319, 87.90572937381238, 87.39476998541696, 87.87810994741263, 87.87810994741263, 88.31311591320873, 88.8862190110036, 88.26478191700916, 88.26478191700916, 89.39717839939901, 90.46743117238942, 90.37766803659024, 90.37766803659024, 90.28790490079103, 89.4662269653984, 89.20384241460074, 89.20384241460074, 89.0864598524018, 88.2164479208096, 88.95526757700297, 89.43170268239871, 89.43170268239871, 87.82287109461312, 89.17622298820099, 89.27289098060012, 89.27289098060012, 88.7066927394052, 88.40287904900792, 87.39476998541696, 87.39476998541696, 87.71929824561406, 88.53407132440675, 87.37405541561715, 86.78023774802246, 86.78023774802246, 87.36024570241726, 87.8712050908127, 87.77453709841355, 87.77453709841355, 87.59501082681517, 87.39476998541696, 88.2164479208096, 88.2164479208096, 88.3614499094083, 88.4166887622078, 87.38096027221708, 87.34643598921738]",87.83385094855075,2.1563694999786094,None
reward-effort-pgACC-TUS,R88533/RE002,B_6,1,2024-07-25_13h48.09.019,2024-07-25 13:51:34,None,None,3,,,4.419726562499999,1,44,avoid,shifted,heart,None,90,-60,-55,accept,3.1692234000656754,failure,-55,-592,"[1.8159772857837293, 1.6985947235847807, 1.5190684519863895, 1.5190684519863895, 1.4362101727871317, 1.4431150293870698, 1.4431150293870698, 1.4431150293870698, 1.4569247425869463, 1.4638295991868844, 1.546687878386142, 1.546687878386142, 1.6295461575853993, 1.96097927438243, 2.326936674179151, 2.326936674179151, 2.837896062574573, 3.4869525829687573, 4.4260130805603435, 6.649376905740423, 6.649376905740423, 8.313447346325512, 10.930387997702065, 14.465674576870391, 14.465674576870391, 18.587873967033456, 22.799836492995716, 28.703488885942825, 28.703488885942825, 33.668080781298336, 39.70292544964427, 45.04728445799638, 45.04728445799638, 47.885180520570955, 52.67024614432808, 56.14338901409697, 56.14338901409697, 60.58321180785718, 62.205853108842646, 64.51898006982192, 64.51898006982192, 67.62616553979409, 70.3259644703699, 72.68742542754873, 72.68742542754873, 75.47698749392374, 76.53343055371428, 76.26414114631669, 76.26414114631669, 78.61179239029565, 81.82945556586682, 82.74780149365859, 82.74780149365859, 80.66253480047727, 81.10444562287333, 83.8525785496487, 83.8525785496487, 83.91472225904813, 84.47401564364313, 86.7319037518229, 86.7319037518229, 85.95855981262982, 86.95976401962085, 88.63764417340582, 88.5616907508065, 88.5616907508065, 89.52837067479784, 90.8057691457864, 91.07505855318398, 91.07505855318398, 91.13029740598348, 91.08196340978392, 90.5710040213885, 90.5710040213885, 90.81957885898628, 91.71030536037829, 91.26148968138232, 91.26148968138232, 91.4410159529807, 91.18553625878299, 90.96458084758497, 90.86791285518584, 90.86791285518584, 90.6055283043882, 89.40408325599896, 90.36385832339036, 90.36385832339036, 91.2407751115825, 90.50886031198905, 89.60432409739715, 89.60432409739715, 90.40528746298997, 91.0060099871846, 91.51696937558003, 91.51696937558003, 91.59292279817934, 90.55719430818863, 90.97839056078485, 91.41339652658095, 91.41339652658095, 91.41339652658095, 91.05434398338417, 91.71030536037829, 91.71030536037829, 91.37887224358126, 90.88862742498566, 90.52957488178886, 90.52957488178886, 90.12218834239252, 89.8667086481948, 89.9012329311945, 89.9012329311945, 90.39147774979011, 90.93005656458529, 91.13029740598348, 91.13029740598348, 91.3305382473817, 92.05554819037519, 94.07867117415707, 94.43772371735385, 94.43772371735385, 95.51488134694421, 95.0798753811481, 92.47674444297142, 92.47674444297142, 91.42720623978082, 91.62744708117904, 93.60914092536127, 93.60914092536127, 93.45723408016265, 91.71030536037829, 90.70219629678732, 90.57790887798843, 90.57790887798843, 91.28220425118214, 91.35815767378145, 91.52387423217996, 91.52387423217996, 91.97268991117595, 94.23748287595565, 94.33415086835478, 94.33415086835478, 95.46654735074463, 95.80488532414161, 95.81869503734148, 96.2398912899377, 96.2398912899377, 95.97060188254012, 96.41941756153611, 96.72323125193337, 96.72323125193337, 96.14322329753857, 95.50107163374433, 96.09488930133901, 96.26751071633745, 96.26751071633745, 96.62656325953424, 97.15133236112953, 97.323953776128, 97.323953776128, 97.3791926289275, 97.24109549692874, 96.79227981793275, 96.79227981793275, 96.45394184453579, 97.40681205532725, 97.2341906403288, 97.2341906403288, 97.10299836492997, 97.68300631932478, 98.04205886252156, 98.04205886252156, 97.26181006672854, 97.2894294931283, 97.60705289672545, 97.60705289672545, 97.22038092712893, 96.68180211233374, 96.03274559193956, 96.43322727473598, 96.43322727473598, 96.67489725573381, 95.99131645233993, 95.83250475054136, 95.83250475054136, 95.93607759954043, 95.18344823014718, 93.44342436696276, 91.68268593397853, 91.68268593397853, 93.85081090635911, 93.16723010296523, 91.17172654558313, 91.17172654558313, 91.08196340978392, 91.05434398338417, 90.4605263157895, 90.4605263157895, 90.67457687038757, 90.2257611913916, 88.13358964161033, 88.13358964161033, 85.7721286844315, 85.29569357903577, 82.68565778425915, 82.68565778425915, 78.16297671129966, 72.68052057094879, 68.24069777718857, 68.24069777718857, 66.77686817800169, 62.01942198064432, 54.879800256308286, 45.447766140792794, 45.447766140792794, 34.98690839188652, 28.910634583940965, 24.146283529983652, 24.146283529983652, 18.13215343143754, 14.210194882672678, 10.474667462106149, 10.474667462106149, 8.748453312121615, 7.222480003535288, 6.642472049140484, 5.827698970347785, 5.827698970347785, 4.930067612355828, 4.101484820363251, 3.6871934243669635, 3.6871934243669635, 3.4524282999690667, 3.2107583189712323, 3.024327190772903, 3.024327190772903, 2.900039771974016, 2.8033717795748823, 2.7481329267753773, 2.7481329267753773, 2.6790843607759958, 2.6100357947766146, 2.5547969419771093, 2.5547969419771093, 2.5202726589774187, 2.47884351937779, 2.4374143797781613, 2.4374143797781613, 2.485748375977728, 2.4512240929780376, 2.389080383578594, 2.389080383578594, 2.3545561005789035, 2.375270670378718, 2.333841530779089, 2.333841530779089, 2.3614609571788416, 2.3683658137787797, 2.326936674179151, 2.326936674179151, 2.333841530779089, 2.333841530779089, 2.3476512439789654, 2.313126960979275, 2.313126960979275, 2.2993172477793986, 2.29241239117946, 2.278602677979584, 2.278602677979584, 2.285507534579522, 2.285507534579522, 2.2647929647797076, 2.2647929647797076, 2.2509832515798314, 2.2440783949798933, 2.237173538379955, 2.237173538379955, 2.2440783949798933, 2.223363825180079, 2.1957443987803265, 2.1957443987803265, 2.1957443987803265, 2.216458968580141, 2.1957443987803265, 2.1957443987803265, 2.1957443987803265, 2.168124972380574, 2.175029828980512, 2.168124972380574, 2.168124972380574, 2.1474104025807597, 2.1405055459808215, 2.1336006893808834, 2.1336006893808834, 2.1543152591806978, 2.1474104025807597, 2.1474104025807597, 2.1474104025807597, 2.1474104025807597, 2.105981262981131]",0,5.0015820999396965,None
reward-effort-pgACC-TUS,R88533/RE002,B_6,1,2024-07-25_13h48.09.019,2024-07-25 13:51:34,None,None,3,,,4.419726562499999,1,45,avoid,shifted,heart,None,90,-60,-57,reject,0.9476024999748915,None,-57,-649,"null",None,None,None
reward-effort-pgACC-TUS,R88533/RE002,B_6,1,2024-07-25_13h48.09.019,2024-07-25 13:51:34,None,None,3,,,4.419726562499999,1,46,avoid,shifted,heart,None,90,-40,-40,reject,1.084414100041613,None,-40,-689,"null",None,None,None
reward-effort-pgACC-TUS,R88533/RE002,B_6,1,2024-07-25_13h48.09.019,2024-07-25 13:51:34,None,None,3,,,4.419726562499999,1,47,avoid,shifted,heart,None,50,-20,-23,accept,2.899920399999246,success,0,-689,"[0.7319147995934422, 0.7319147995934422, 0.7181050863935659, 0.7181050863935659, 0.7112002297936277, 0.7319147995934422, 0.7112002297936277, 0.7112002297936277, 0.725009942993504, 0.7181050863935659, 0.725009942993504, 0.725009942993504, 0.725009942993504, 0.7181050863935659, 0.7388196561933803, 0.7388196561933803, 0.7319147995934422, 0.725009942993504, 0.7526293693932565, 0.7526293693932565, 0.9459653541915244, 1.2497790445888022, 1.9540744177824916, 1.9540744177824916, 2.6169406513765527, 3.3902845905696233, 5.9174621061469805, 5.9174621061469805, 8.4377347651244, 13.015654690883382, 16.60618012285121, 16.60618012285121, 20.08622784922003, 24.11175924698396, 28.620630606743564, 28.620630606743564, 32.07996376331257, 36.63716911927173, 41.98843298422379, 41.98843298422379, 45.9380109593884, 48.0923262185691, 49.84615979495339, 49.84615979495339, 54.32741172831324, 56.37124928189492, 56.523156127093564, 56.523156127093564, 56.86149410049053, 57.50364576428477, 61.32203146405056, 61.32203146405056, 63.407298157231885, 63.98040125502674, 66.50067391400415, 66.50067391400415, 67.71592867559328, 67.29473242299704, 66.2175747934067, 66.2175747934067, 67.5018781209952, 67.78497724159266, 66.80448760440144, 66.80448760440144, 66.71472446860224, 67.67449953599365, 67.57783154359451, 67.57783154359451, 67.12901586459854, 65.65137655221177, 64.71922091122012, 64.71922091122012, 66.16233594060719, 65.23018029961555, 64.063259534226, 64.063259534226, 63.61444385523003, 63.06896018383491, 62.73062221043795, 62.73062221043795, 62.5580007954395, 62.067755976843884, 61.301316894250746, 61.301316894250746, 61.26679261125106, 60.7489283662557, 59.512959034866775, 59.512959034866775, 59.01580935967122, 59.147001635070055, 59.326527906668446, 59.326527906668446, 59.37486190286801, 60.058442706261886, 60.96988377745372, 60.96988377745372, 62.2334725352424, 62.205853108842646, 62.205853108842646, 61.770847143046545, 61.72251314684698, 61.21155375845155, 61.21155375845155, 61.02512263025323, 62.64085907463874, 63.72492156082904, 63.72492156082904, 63.200152459233735, 62.73752706703788, 62.88252905563658, 62.88252905563658, 63.31753502143268]",63.3541753088743,1.8566421000286937,None
