expName,curec_ID,trial_schedule,session_nr,date,start_time,end_time,duration,participant,age,gender,max_strength,block_number,trial_count,block_action_type,block_global_effort_state,block_attention_focus,trial_rating,trial_effort,trial_outcome_level,trial_actual_outcome,response,response_time,result,points,cumulative_points,effort_trace,effort_expended,effort_response_time,final_bonus_payment
reward-effort-pgACC-TUS,R88533/RE002,B_3,1,2024-08-06_14h13.19.467,2024-08-06 14:16:04,None,None,6,,,2.1777832031249997,1,1,approach,normal,reward,None,85,80,80,accept,2.87785199994687,success,80,80,"[0.5465124100356494, 0.5745386874733751, 0.5745386874733751, 0.5465124100356494, 0.5324992713167866, 0.6305912423488264, 0.6305912423488264, 0.5885518261922379, 0.5605255487545123, 0.5324992713167866, 0.5324992713167866, 0.5184861325979239, 0.5044729938790611, 0.4764467164413354, 0.4764467164413354, 0.4624335777224727, 0.4764467164413354, 0.49045985516019824, 0.49045985516019824, 0.49045985516019824, 0.4624335777224727, 0.4624335777224727, 0.49045985516019824, 0.5324992713167866, 0.5324992713167866, 0.6305912423488264, 1.24716934597879, 1.24716934597879, 2.0599313916728326, 3.4472321248402507, 5.675321181139437, 10.341696374520753, 10.341696374520753, 14.853927041994574, 25.41983363601713, 34.05192708683662, 34.05192708683662, 44.23947893544988, 54.2168337032802, 62.876953431537416, 70.3039169525347, 70.3039169525347, 75.36266003004418, 79.84686442008028, 83.84060895495618, 86.23685567588171, 86.23685567588171, 88.2827739288357, 89.62803524584652, 90.74908634335554, 90.74908634335554, 91.78605860855139, 92.69691262527748, 93.57974036456584, 94.47658124257305, 94.47658124257305, 95.10717248492188, 95.26131701082936, 95.16322503979733, 95.16322503979733, 95.12118562364074, 95.14921190107847, 94.33644985538442, 93.83197686150537, 93.83197686150537, 93.11730678684336, 92.30454474114931, 91.43573014057982, 91.43573014057982, 90.97329656285734, 90.1605345171633, 89.4458644425013, 89.4458644425013, 89.16560166812404, 88.38086589986773, 88.38086589986773, 88.29678706755455, 88.29678706755455, 87.93244546086412, 87.96047173830183, 88.78724692271474, 88.78724692271474, 88.60507611936953, 88.25474765139796, 88.53501042577521, 88.60507611936953, 88.60507611936953, 88.6190892580884, 88.63310239680726, 88.64711553552613, 88.64711553552613, 87.54007757673595, 87.54007757673595, 85.99863231766105, 85.32600165915564, 84.38712136499183, 83.47626734826574, 83.47626734826574, 83.18199143516962, 83.2660702674828, 83.78455640008072, 84.07883231317685, 84.07883231317685, 83.57435931929778, 83.06988632541872]",89.1793850832573,1.7371251999866217,None
reward-effort-pgACC-TUS,R88533/RE002,B_3,1,2024-08-06_14h13.19.467,2024-08-06 14:16:04,None,None,6,,,2.1777832031249997,1,2,approach,normal,reward,None,70,40,51,accept,1.3502726000733674,success,51,131,"[0.6305912423488264, 0.6305912423488264, 0.6025649649111007, 0.6025649649111007, 0.6025649649111007, 0.6305912423488264, 0.6305912423488264, 0.6726306585054148, 0.6726306585054148, 0.6586175197865519, 0.6726306585054148, 0.6866437972242776, 0.6866437972242776, 0.6305912423488264, 0.6305912423488264, 0.6726306585054148, 0.6726306585054148, 0.6305912423488264, 0.6866437972242776, 0.7567094908185916, 0.7567094908185916, 0.9248671554449454, 1.4153270106051437, 2.2561153337369118, 2.2561153337369118, 3.7415080379363697, 6.109728481424185, 10.313670097083026, 14.097217551175984, 14.097217551175984, 20.97766866213762, 25.784175242707562, 30.660747516871822, 30.660747516871822, 36.65837088854511, 42.557902289186345, 46.88796215331495, 46.88796215331495, 50.95177238178516, 52.4091388085469, 53.446111073742756, 54.160781148404745, 54.160781148404745, 54.931503777942204, 55.351897939508085, 55.94044976570033, 55.94044976570033, 56.45893589829824, 57.13156655680367, 57.45386874733751, 57.45386874733751, 57.3838030537432, 58.56090670612767, 60.242483352391204, 62.03616510840565, 62.03616510840565, 63.68971547723146, 67.59938117979418, 70.51411403331764, 70.51411403331764, 73.76516221609381, 74.31167462612946, 74.7881213425708, 74.7881213425708, 75.46075200107622, 76.17542207573823, 76.23147463061368, 76.23147463061368, 75.71298849801576, 75.5027914172328, 75.37667316876305, 74.97029214591602, 74.97029214591602, 74.99831842335375, 74.98430528463487, 74.66200309410104, 74.66200309410104, 74.54989798435014, 74.66200309410104, 74.69002937153877, 74.36772718100492, 74.36772718100492, 74.6760162328199, 75.79706733032893, 76.63785565346069, 76.63785565346069, 77.39456514427928, 78.37548485459969, 77.39456514427928, 77.39456514427928, 76.9741709827134, 77.31048631196612, 77.3525257281227, 77.33851258940383, 77.33851258940383, 77.38055200556042, 77.21239434093407, 76.7499607632116, 76.7499607632116, 76.25950090805141, 76.09134324342504, 76.07733010470619, 76.11936952086276, 76.11936952086276, 76.30154032420798, 76.38561915652117, 76.8200264568059, 76.8200264568059, 77.00219726015114, 76.90410528911909, 77.47864397659247, 77.47864397659247, 79.44048339723325, 79.81883814264256, 80.28127172036503, 80.28127172036503, 80.8137709916818, 79.6506804780162]",76.12649095201496,1.9598703000228852,None
reward-effort-pgACC-TUS,R88533/RE002,B_3,1,2024-08-06_14h13.19.467,2024-08-06 14:16:04,None,None,6,,,2.1777832031249997,1,3,approach,normal,reward,None,60,20,20,reject,2.4561265000374988,None,0,131,"null",None,None,None
reward-effort-pgACC-TUS,R88533/RE002,B_3,1,2024-08-06_14h13.19.467,2024-08-06 14:16:04,None,None,6,,,2.1777832031249997,1,4,approach,normal,reward,None,70,20,20,reject,1.1305807000026107,None,0,131,"null",None,None,None
reward-effort-pgACC-TUS,R88533/RE002,B_3,1,2024-08-06_14h13.19.467,2024-08-06 14:16:04,None,None,6,,,2.1777832031249997,1,5,approach,normal,reward,None,80,100,105,accept,0.7578713999828324,success,105,236,"[0.6025649649111007, 0.5324992713167866, 0.5324992713167866, 0.5184861325979239, 0.5324992713167866, 0.5184861325979239, 0.49045985516019824, 0.4764467164413354, 0.4764467164413354, 0.5745386874733751, 0.5605255487545123, 0.5324992713167866, 0.6165781036299636, 0.728683213380866, 1.1350642362278875, 2.6484832178650706, 2.6484832178650706, 5.324992713167867, 10.117486155018947, 14.139256967332573, 14.139256967332573, 22.589179614806845, 29.259433644985545, 36.88258110804691, 44.09934754826125, 44.09934754826125, 51.65242931772831, 56.7812380888321, 60.214457074953486, 62.59669065716016, 63.77379430954464, 66.39425124997199, 66.39425124997199, 68.42615636420709, 69.4351023519652, 70.43003520100447, 70.43003520100447, 71.83134907289075, 72.78424250577342, 74.47983229075582, 75.48877827851395, 75.48877827851395, 76.63785565346069, 78.37548485459969, 79.94495639111233, 79.94495639111233, 81.44436223403063, 84.00876661958253, 86.34896078563263, 86.34896078563263, 90.37073159794625, 91.64592722136277, 91.75803233111365, 91.8981637183023, 91.8981637183023, 91.8561243021457, 91.75803233111365, 91.77204546983253, 91.53382211161187, 91.21151992107801, 91.21151992107801, 90.91724400798189, 90.94527028541962, 91.35165130826664, 91.35165130826664, 91.57586152776844, 91.84211116342684, 91.88415057958342, 91.7440191923948, 91.7440191923948, 91.65994036008162, 91.32362503082891, 90.90323086926303, 90.90323086926303, 90.06244254613127, 88.64711553552613, 88.78724692271474, 88.78724692271474, 90.51086298513488, 91.16948050492142, 91.09941481132711, 90.21658707203876, 90.21658707203876, 90.31467904307078, 90.52487612385374, 89.72612721687855, 89.20764108428062, 89.20764108428062, 89.01145714221656, 87.9044191834264, 87.16172283132666, 88.45093159346204, 88.45093159346204, 88.96941772605996, 88.38086589986773, 87.47001188314164, 87.47001188314164, 87.41395932826619, 87.13369655388894, 86.76935494719851, 86.60119728257214, 86.60119728257214, 86.64323669872874]",88.86925824275791,1.7506984999636188,None
reward-effort-pgACC-TUS,R88533/RE002,B_3,1,2024-08-06_14h13.19.467,2024-08-06 14:16:04,None,None,6,,,2.1777832031249997,1,6,approach,normal,reward,None,55,40,36,accept,1.3709503000136465,success,36,272,"[0.6305912423488264, 0.6305912423488264, 0.6025649649111007, 0.6025649649111007, 0.6165781036299636, 0.6446043810676891, 0.6726306585054148, 0.6726306585054148, 0.7006569359431404, 0.728683213380866, 0.7707226295374544, 0.8968408780072197, 0.8968408780072197, 1.0369722651958477, 1.4013138718862808, 2.200062778861461, 2.200062778861461, 4.217954754377705, 8.379856953879958, 12.850048205197195, 12.850048205197195, 18.11898836348961, 26.288648236586624, 33.6455460639896, 41.6330351337414, 41.6330351337414, 48.807762157799154, 53.446111073742756, 56.949395753458454, 59.99024685545168, 59.99024685545168, 61.279455617587054, 63.241295038227854, 66.15602789175131, 66.15602789175131, 68.00576220264121, 69.1408264388691, 70.07970673303289, 70.07970673303289, 72.05555929239256, 74.05943812918994, 74.80213448128966, 74.80213448128966, 75.60088338826485, 75.93719871751755, 75.9231855787987, 76.09134324342504, 76.09134324342504, 76.00726441111186, 75.58687024954598, 75.13844981054237, 75.13844981054237, 74.70404251025762, 74.53588484563127, 74.53588484563127, 74.32568776484834, 74.32568776484834, 73.4708863029977, 73.34476805452793, 73.14858411246385, 72.29378265061322, 72.29378265061322, 72.34983520548867, 72.9804264478375, 73.12055783502613, 72.58805856370934, 72.58805856370934, 72.36384834420754, 70.59819286563082, 70.02365417815744, 70.02365417815744, 69.57523373915384, 69.60326001659156, 70.02365417815744, 70.40200892356675, 70.40200892356675, 70.54214031075537, 70.50010089459879, 70.54214031075537, 70.54214031075537, 70.33194322997242, 70.07970673303289, 70.13575928790836, 70.13575928790836, 70.50010089459879, 70.40200892356675, 70.14977242662721, 69.70135198762361, 69.70135198762361]",70.78443199957182,1.4690241999924183,None
reward-effort-pgACC-TUS,R88533/RE002,B_3,1,2024-08-06_14h13.19.467,2024-08-06 14:16:04,None,None,6,,,2.1777832031249997,1,7,approach,normal,reward,None,70,80,70,accept,0.9943156000226736,success,70,342,"[0.6726306585054148, 0.6726306585054148, 0.7006569359431404, 0.728683213380866, 0.7567094908185916, 0.7567094908185916, 0.9388802941638081, 1.3172350395731038, 1.807694894733302, 2.7045357727405217, 2.7045357727405217, 3.979731396157037, 5.647294903701711, 10.2856438196453, 15.554583977937716, 15.554583977937716, 22.21082486939755, 28.85305262213852, 36.74244972085828, 36.74244972085828, 45.416582587834355, 52.46519136342235, 56.64110670164347, 60.06031254904599, 60.06031254904599, 62.722808905629925, 66.3101724176588, 69.11280016143137, 69.11280016143137, 71.7752965180153, 73.83522790968813, 75.0543709782292, 75.19450236541783, 75.19450236541783, 74.77410820385194, 74.73206878769535, 74.7460819264142, 74.7460819264142, 74.76009506513309, 75.20851550413668, 74.92825272975944, 74.56391112306899, 74.56391112306899, 74.29766148741061, 73.91930674200131, 72.30779578933209, 72.30779578933209, 71.80332279545303, 73.44286002555998, 74.91423959104057, 75.64292280442143, 75.64292280442143, 76.09134324342504, 76.38561915652117, 77.03022353758885, 77.17035492477748, 77.17035492477748, 77.92706441559606, 78.8939709871976, 78.54364251922603, 77.80094616712631, 77.80094616712631, 79.02008923566737, 79.20226003901259, 79.13219434541827, 78.76785273872784, 78.76785273872784, 77.8850249994395, 77.39456514427928, 77.11430236990203, 77.17035492477748, 77.17035492477748, 77.60476222506223, 77.36653886684157, 77.00219726015114, 77.00219726015114, 76.87607901168137, 76.37160601780229, 76.16140893701936, 75.8811461626421, 75.8811461626421, 76.28752718548913, 76.98818412143227, 77.3525257281227, 77.3525257281227, 78.41752427075626, 78.36147171588081, 77.32449945068497, 77.32449945068497]",76.00929857640975,1.4838339000707492,None
reward-effort-pgACC-TUS,R88533/RE002,B_3,1,2024-08-06_14h13.19.467,2024-08-06 14:16:04,None,None,6,,,2.1777832031249997,1,8,approach,normal,reward,0.812,85,80,77,accept,1.0099221999989823,success,77,419,"[0.728683213380866, 0.7426963520997287, 0.728683213380866, 0.6726306585054148, 0.6726306585054148, 0.728683213380866, 0.7006569359431404, 0.7006569359431404, 0.7006569359431404, 0.7426963520997287, 0.9108540167260825, 1.1771036523844758, 1.59749781395036, 1.59749781395036, 2.2421021950180493, 3.615389789466604, 6.2078204524562235, 6.2078204524562235, 11.294589807403423, 15.848859891033834, 25.125557722921016, 25.125557722921016, 32.4404161341674, 41.240667249613246, 49.732629313244104, 49.732629313244104, 54.973543194098795, 61.069258536804114, 65.98787022712496, 65.98787022712496, 69.8554965135311, 72.88233447680547, 75.1664760879801, 76.38561915652117, 76.38561915652117, 79.59462792314075, 82.9998206318244, 84.2890293939598, 84.2890293939598, 84.75146297168226, 85.22790968812359, 85.53619873993857, 86.27889509203831, 86.27889509203831, 86.34896078563263, 86.27889509203831, 86.62922356000988, 86.74132866976078, 86.74132866976078, 86.15277684356855, 86.06869801125536, 87.11968341517007, 89.08152283581087, 89.08152283581087, 90.93125714670076, 91.67395349880049, 92.20645277011728, 93.06125423196791, 93.06125423196791, 94.0421739422883, 93.94408197125627, 93.98612138741285, 93.98612138741285, 94.32243671666556, 94.05618708100715, 93.63579291944127, 93.27145131275084, 93.27145131275084, 93.20138561915653, 92.47270240577566, 91.82809802470798, 91.56184838904959, 91.56184838904959, 91.43573014057982, 90.84717831438758, 90.13250823972557, 90.13250823972557, 88.98343086477882, 88.2827739288357, 88.2827739288357, 87.7502746575189, 87.7502746575189, 86.93751261182486, 86.58718414385329, 86.4750790341024, 86.5451447276967, 86.5451447276967, 86.26488195331945, 86.58718414385329, 86.97955202798144, 86.97955202798144, 86.92349947310599, 86.3910002017892, 86.08271114997422, 86.33494764691376, 86.33494764691376, 86.85343377951168]",88.82607020867353,1.6162900000344962,None
reward-effort-pgACC-TUS,R88533/RE002,B_3,1,2024-08-06_14h13.19.467,2024-08-06 14:16:04,None,None,6,,,2.1777832031249997,1,9,approach,normal,reward,None,100,20,19,reject,1.9326733000343665,None,0,419,"null",None,None,None
reward-effort-pgACC-TUS,R88533/RE002,B_3,1,2024-08-06_14h13.19.467,2024-08-06 14:16:04,None,None,6,,,2.1777832031249997,1,10,approach,normal,reward,None,50,60,63,accept,1.4521859999513254,success,63,482,"[0.5885518261922379, 0.5885518261922379, 0.6305912423488264, 0.6025649649111007, 0.6025649649111007, 0.6025649649111007, 0.5885518261922379, 0.6165781036299636, 0.7146700746620032, 0.7146700746620032, 0.79874890697518, 0.9248671554449454, 1.1350642362278875, 1.1350642362278875, 1.4853927041994575, 2.0178919755162443, 3.615389789466604, 3.615389789466604, 5.184861325979239, 9.010448196228785, 12.667877401851978, 12.667877401851978, 16.227214636443133, 23.31786282818771, 28.656868680074442, 28.656868680074442, 34.37422927737047, 42.64198112149952, 46.439541714311346, 46.439541714311346, 51.77854756619807, 54.86143808434789, 57.08952714064708, 59.401695029259436, 59.401695029259436, 61.013205981928664, 62.456559269971535, 63.11517678975809, 63.11517678975809, 64.2782673034237, 65.5254366494025, 66.01589650456269, 66.800632272819, 67.38918409901125, 67.38918409901125, 67.61339431851304, 67.40319723773011, 67.26306585054148, 67.26306585054148, 66.99681621488308, 66.99681621488308, 67.02484249232081, 67.43122351516783, 67.43122351516783, 67.61339431851304, 67.61339431851304, 67.76753884442054, 67.75352570570168, 67.75352570570168, 66.54839577587947, 65.58148920427794, 65.41333153965158, 65.41333153965158, 66.29615927893994, 66.82865855025672, 67.15096074079058, 67.30510526669806, 67.30510526669806, 67.2910921279792, 67.69747315082623, 68.3841169480505, 68.3841169480505, 68.70641913858434, 68.83253738705412, 68.73444541602207, 68.73444541602207, 68.77648483217867, 69.37904979708976, 69.53319432299725, 69.19687899374455, 69.19687899374455, 68.72043227730322, 68.76247169345979, 69.01470819039933, 69.01470819039933, 69.39306293580863, 69.75740454249906, 70.16378556534607, 69.81345709737451, 69.81345709737451, 69.42108921324635]",66.52657203525172,1.508679199963808,None
reward-effort-pgACC-TUS,R88533/RE002,B_3,1,2024-08-06_14h13.19.467,2024-08-06 14:16:04,None,None,6,,,2.1777832031249997,1,11,approach,normal,reward,None,55,40,41,accept,1.5664158000145108,success,41,523,"[0.5605255487545123, 0.5605255487545123, 0.5605255487545123, 0.5465124100356494, 0.5324992713167866, 0.5885518261922379, 0.5885518261922379, 0.6025649649111007, 0.6025649649111007, 0.5745386874733751, 0.5745386874733751, 0.6305912423488264, 0.6305912423488264, 1.0369722651958477, 2.5363781081141683, 2.5363781081141683, 4.848545996726531, 8.43590950875541, 13.81695477679873, 13.81695477679873, 19.450236541781578, 25.377794219860544, 32.49646868904285, 32.49646868904285, 38.26988184121433, 44.47770229367055, 49.76065559068183, 49.76065559068183, 52.84354610883165, 53.69834757068228, 54.160781148404745, 54.160781148404745, 55.9124234882626, 56.86531692114527, 57.45386874733751, 58.25261765431269, 58.25261765431269, 59.1914979484765, 60.130378242640305, 60.130378242640305, 60.20044393623461, 60.214457074953486, 60.84504831730231, 60.84504831730231, 61.09728481424184, 61.321495033743645, 62.414519853814944, 62.414519853814944, 64.82477971345935, 67.08089504719625, 67.15096074079058, 67.0668819084774, 67.0668819084774, 66.54839577587947, 65.41333153965158, 64.46043810676892, 64.46043810676892, 64.36234613573687, 65.3292527073384, 65.30122642990068, 65.30122642990068, 64.9929373780857, 65.0349767942423, 63.42346584157307, 62.80688773794311, 62.80688773794311, 62.498598686128126, 62.80688773794311, 63.39543956413534, 63.39543956413534, 63.99800452904644, 63.94195197417098, 64.19418847111052, 64.5024775229255, 64.5024775229255, 64.43241182933119, 64.53050380036322, 64.71267460370844, 64.71267460370844, 65.18912132014978, 65.46938409452704, 66.77260599538127, 67.2910921279792, 67.2910921279792, 67.40319723773011, 66.7305665792247, 66.5343826371606, 66.5343826371606, 66.1980673079079, 65.73563373018543]",63.009852231000146,1.4939267999725416,None
reward-effort-pgACC-TUS,R88533/RE002,B_3,1,2024-08-06_14h13.19.467,2024-08-06 14:16:04,None,None,6,,,2.1777832031249997,1,12,approach,normal,reward,None,80,60,68,accept,0.8152775000780821,success,68,591,"[0.6305912423488264, 0.6866437972242776, 0.6866437972242776, 0.6586175197865519, 0.6446043810676891, 0.6446043810676891, 0.6305912423488264, 0.6305912423488264, 0.6025649649111007, 0.6025649649111007, 0.6586175197865519, 0.6305912423488264, 0.6586175197865519, 0.6586175197865519, 0.728683213380866, 1.667563507544674, 3.64341606690433, 6.6282146140221085, 6.6282146140221085, 11.32261608484115, 16.997937265980585, 16.997937265980585, 24.80325553238717, 30.955023429967945, 38.396000089684094, 44.08533440954239, 44.08533440954239, 51.65242931772831, 56.26275195623417, 58.84116948050493, 58.84116948050493, 60.83103517858345, 61.55971839196431, 62.764848321786516, 64.65662204883299, 64.65662204883299, 67.1789870182283, 68.83253738705412, 69.68733884890474, 69.68733884890474, 69.82747023609338, 70.23385125894039, 71.08865272079102, 71.08865272079102, 71.35490235644941, 72.04154615367369, 74.11549068406539, 75.61489652698371, 75.61489652698371, 76.23147463061368, 76.16140893701936, 76.17542207573823, 76.17542207573823, 76.56778995986639, 77.61877536378108, 78.93601040335419, 78.93601040335419, 80.36535055267821, 80.43541624627252, 81.65455931481358, 81.65455931481358, 82.07495347637946, 81.7946907020022, 81.33225712427974, 82.4392950830699, 82.4392950830699, 83.95271406470708, 84.40113450371068, 84.62534472321249, 84.62534472321249, 85.14383085581042, 85.59225129481402, 85.95659290150446, 86.15277684356855, 86.15277684356855, 85.95659290150446, 86.86744691823054, 87.80632721239435, 87.80632721239435, 87.62415640904914, 88.36685276114886, 88.87132575502793, 88.75922064527703, 88.75922064527703, 88.00251115445843, 87.1056702764512, 86.96553888926259, 86.3910002017892, 86.3910002017892, 85.95659290150446, 85.77442209815925, 85.77442209815925, 85.53619873993857, 85.62027757225175, 85.38205421403109, 85.28396224299904, 85.28396224299904, 85.53619873993857, 84.80751552655771, 83.81258267751845, 83.81258267751845, 83.81258267751845, 83.46225420954688, 83.42021479339029, 84.5132396134616, 84.5132396134616, 85.10179143965382, 85.52218560121972, 86.13876370484968, 86.13876370484968, 85.53619873993857]",84.09691378249151,1.8360711999703199,None
reward-effort-pgACC-TUS,R88533/RE002,B_3,1,2024-08-06_14h13.19.467,2024-08-06 14:16:04,None,None,6,,,2.1777832031249997,1,13,approach,normal,reward,None,90,40,27,accept,0.8754810999380425,success,27,618,"[0.6586175197865519, 0.728683213380866, 0.728683213380866, 0.7426963520997287, 0.728683213380866, 0.7707226295374544, 0.7707226295374544, 0.728683213380866, 0.728683213380866, 0.728683213380866, 0.7146700746620032, 0.7146700746620032, 0.7567094908185916, 1.4853927041994575, 3.4332189861213878, 3.4332189861213878, 6.908477388399365, 12.051299298222014, 18.259119750678238, 18.259119750678238, 24.943386919575797, 32.97291540548419, 40.35783951032489, 40.35783951032489, 46.53763368534338, 55.70222640747966, 61.39156072733796, 61.39156072733796, 69.25293154861998, 73.37279433196566, 75.81108046904778, 75.81108046904778, 78.06719580278471, 82.11699289253606, 83.65843815161097, 83.65843815161097, 85.39606735274995, 86.83942064079282, 88.59106298065068, 88.59106298065068, 90.02040312997468, 90.37073159794625, 91.44974327929867, 91.44974327929867, 92.92112284477928, 94.12625277460148, 95.10717248492188, 95.52756664648776, 95.52756664648776, 96.81677540862313, 97.55947176072287, 97.69960314791149, 97.69960314791149, 97.89578708997557, 98.94677249389028, 99.92769220421069, 99.92769220421069, 99.92769220421069, 100.4461783368086, 100.712427972467, 100.19394183986907, 100.19394183986907, 100.05381045268045, 100.05381045268045, 100.12387614627475, 100.12387614627475, 100.37611264321428, 100.36209950449542, 100.54427030784063, 100.54427030784063, 100.36209950449542, 100.34808636577657, 100.64236227887268, 100.62834914015382, 100.62834914015382, 100.41815205937088, 101.41308490841014, 101.72137396022511, 101.72137396022511, 100.67038855631041, 100.5582834465595, 100.67038855631041, 100.67038855631041, 100.65637541759153, 100.67038855631041, 99.89966592677295, 99.89966592677295, 98.97479877132801, 98.73657541310735, 98.70854913566961, 99.04486446492233, 99.04486446492233, 99.07289074236006, 98.04993161588307, 97.90980022869444, 98.16203672563397, 98.16203672563397, 98.06394475460193, 97.53144548328514]",98.12406564007313,1.645416900049895,None
reward-effort-pgACC-TUS,R88533/RE002,B_3,1,2024-08-06_14h13.19.467,2024-08-06 14:16:04,None,None,6,,,2.1777832031249997,1,14,approach,normal,reward,None,50,20,21,accept,2.1896560000022873,success,21,639,"[28.586802986480127, 28.586802986480127, 28.012264299006752, 28.012264299006752, 26.96127889509204, 25.770162103988703, 24.81726867110603, 24.81726867110603, 23.76628326719132, 23.247797134593398, 22.729311001995473, 22.336943117867314, 22.336943117867314, 22.322929979148455, 23.037600053810454, 23.16371830228022, 23.16371830228022, 23.31786282818771, 24.214703706194932, 25.41983363601713, 25.41983363601713, 27.63390955359746, 29.623775251675976, 32.930875989327596, 32.930875989327596, 35.52330665231722, 40.11961615210422, 43.384677473599254, 43.384677473599254, 48.527499383421905, 52.12887603416965, 54.34295195174996, 54.34295195174996, 55.82834465594942, 56.58505414676802, 57.97235487993544, 58.79913006434834, 58.79913006434834, 59.485773861572625, 60.2845227685478, 60.90110087217776, 60.90110087217776, 60.92912714961549, 60.803008901145716, 60.634851236519374, 60.634851236519374, 60.32656218470439, 60.08833882648372, 59.61189211004238, 59.47176072285375, 59.47176072285375, 59.44373444541603, 59.45774758413489, 59.45774758413489, 59.485773861572625, 59.78004977466874, 59.794062913387606, 59.794062913387606, 59.6819578036367, 59.58386583260465, 60.214457074953486, 60.214457074953486, 60.83103517858345, 60.83103517858345, 60.803008901145716, 60.803008901145716, 60.84504831730231, 60.83103517858345, 60.859061456021166, 60.90110087217776, 60.90110087217776, 60.90110087217776, 60.84504831730231, 60.91511401089662, 60.91511401089662, 60.90110087217776, 60.83103517858345, 60.71893006883254, 60.71893006883254, 60.228470213672345, 59.850115468263056, 59.920181161857364, 59.920181161857364, 60.116365103921446, 60.60682495908164, 60.60682495908164, 60.45268043317415, 60.45268043317415, 60.438667294455286, 60.3966278782987]",59.59213588168464,1.487480300012976,None
reward-effort-pgACC-TUS,R88533/RE002,B_3,1,2024-08-06_14h13.19.467,2024-08-06 14:16:04,None,None,6,,,2.1777832031249997,1,15,approach,normal,reward,0.444,50,20,20,accept,1.730263500008732,success,20,659,"[0.7006569359431404, 0.7567094908185916, 0.7567094908185916, 0.7567094908185916, 0.7426963520997287, 0.7426963520997287, 0.7426963520997287, 0.728683213380866, 0.7847357682563172, 0.7426963520997287, 0.7006569359431404, 0.7006569359431404, 0.8127620456940429, 1.3732875944485552, 2.9007197148046013, 2.9007197148046013, 5.016703661352885, 10.790116813524362, 14.57366426761732, 14.57366426761732, 20.333064281069934, 27.227528530750433, 32.86081029573328, 32.86081029573328, 39.81132710028923, 43.37066433488039, 46.67776507253201, 46.67776507253201, 48.569538799578496, 49.42434026142912, 51.76453442747921, 51.76453442747921, 52.66137530548644, 53.95058406762181, 54.94551691666106, 54.94551691666106, 56.122620569045544, 56.92136947602072, 57.45386874733751, 58.61695926100312, 58.61695926100312, 58.85518261922379, 58.85518261922379, 58.85518261922379, 58.85518261922379, 59.31761619694627, 59.44373444541603, 59.66794466491784, 59.69597094235556, 59.69597094235556, 59.65393152619897, 58.85518261922379, 58.85518261922379, 58.8131432030672, 59.87814174570077, 60.59281182036278, 60.59281182036278, 61.069258536804114, 61.40557386605682, 61.93807313737361, 61.93807313737361, 62.23234905046973, 62.204322773032004, 62.54063810228471, 62.54063810228471, 62.54063810228471, 62.54063810228471, 62.54063810228471, 62.54063810228471, 62.848927154099684, 63.087150512320356, 63.591623506199426, 63.591623506199426, 64.30629358086144, 64.26425416470484, 64.2782673034237, 64.2782673034237, 64.69866146498958, 65.07701621039888, 65.0349767942423, 65.0349767942423, 64.57254321651982, 63.927938835452125, 63.647676061074876, 63.647676061074876, 63.01708481872604, 62.68076948947334, 62.80688773794311, 62.86294029281856, 62.86294029281856]",60.3611429947687,1.4872704000445083,None
reward-effort-pgACC-TUS,R88533/RE002,B_3,1,2024-08-06_14h13.19.467,2024-08-06 14:16:04,None,None,6,,,2.1777832031249997,1,16,approach,normal,reward,None,95,60,56,accept,2.110365999978967,success,56,715,"[0.4203941615658843, 0.44842043900360984, 0.44842043900360984, 0.434407300284747, 0.4203941615658843, 0.3783547454092958, 0.3783547454092958, 0.434407300284747, 0.4203941615658843, 0.44842043900360984, 0.44842043900360984, 0.49045985516019824, 0.5745386874733751, 0.7146700746620032, 0.7146700746620032, 0.8407883231317685, 1.0790116813524362, 1.2331562072599271, 1.2331562072599271, 1.3873007331674179, 1.59749781395036, 2.031905114235107, 3.2370350440573086, 3.2370350440573086, 4.918611690320845, 9.13656644469855, 13.704849667047824, 13.704849667047824, 23.10766574740477, 30.39449788121343, 38.6202103091859, 38.6202103091859, 48.807762157799154, 54.7072935584404, 60.494719849330735, 60.494719849330735, 65.27320015246296, 70.47207461716106, 74.61996367794444, 76.84805273424364, 76.84805273424364, 83.18199143516962, 85.92856662406673, 89.1796148068429, 89.1796148068429, 92.48671554449453, 95.06513306876528, 96.03203964036682, 96.03203964036682, 96.55052577296475, 97.11105132171926, 98.17604986435283, 98.17604986435283, 99.32512723929958, 100.83854622093675, 101.81946593125717, 101.81946593125717, 101.02071702428196, 99.89966592677295, 98.37223380641692, 98.37223380641692, 97.85374767381899, 97.72762942534922, 96.66263088271565, 96.56453891168361, 96.56453891168361, 96.6065783278402, 97.19513015403243, 98.7505885518262, 98.7505885518262, 99.0168381874846, 100.54427030784063, 100.4882177529652, 100.54427030784063, 100.54427030784063, 101.24492724378378, 101.7634133763817, 100.6003228627161, 100.6003228627161, 101.06275644043856, 102.47808345104372, 101.46913746328559, 100.19394183986907, 100.19394183986907, 99.63341629111456, 98.51236519360553, 98.04993161588307, 97.6575637317549, 97.6575637317549, 97.41934037353424, 97.04098562812494, 96.9849330732495, 96.9849330732495, 96.97091993453063, 96.8728279634986, 96.80276226990428, 96.18618416627432, 96.18618416627432, 95.70973744983297, 95.52756664648776, 95.87789511445933, 95.87789511445933, 95.86388197574045, 96.04605277908568, 96.06006591780455, 95.75177686598957, 95.75177686598957]",98.128133970669,1.7734177000820637,None
reward-effort-pgACC-TUS,R88533/RE002,B_3,1,2024-08-06_14h13.19.467,2024-08-06 14:16:04,None,None,6,,,2.1777832031249997,1,17,approach,normal,reward,None,70,60,49,accept,1.1574053999502212,success,49,764,"[0.6305912423488264, 0.6446043810676891, 0.6446043810676891, 0.6446043810676891, 0.5745386874733751, 0.5885518261922379, 0.5885518261922379, 0.5885518261922379, 0.6165781036299636, 0.6025649649111007, 0.6025649649111007, 0.6025649649111007, 0.5885518261922379, 0.6446043810676891, 0.6446043810676891, 0.6446043810676891, 0.6305912423488264, 0.6726306585054148, 0.6726306585054148, 0.6726306585054148, 1.2751956234165154, 2.564404385551894, 6.48808322683348, 6.48808322683348, 11.224524113809109, 16.591556243133564, 24.11661173516289, 24.11661173516289, 32.00600883388265, 37.77942198605413, 44.33757090648192, 44.33757090648192, 49.08802493217642, 52.0307840631376, 53.067756328333445, 53.067756328333445, 53.2359139929598, 53.207887715522084, 54.46907020021974, 54.46907020021974, 55.95446290441919, 57.60801327324501, 59.345642474383986, 61.09728481424184, 61.09728481424184, 63.297347593103304, 65.53944978812135, 65.76366000762316, 65.76366000762316, 66.99681621488308, 68.72043227730322, 68.74845855474094, 69.11280016143137, 69.11280016143137, 71.21477096926078, 73.54095199659201, 74.91423959104057, 74.91423959104057, 75.5027914172328, 75.48877827851395, 75.5448308333894, 75.5448308333894, 75.4327257236385, 75.46075200107622, 75.68496222057803, 75.5027914172328, 75.5027914172328, 75.5027914172328, 76.1473957983005, 78.03916952534698, 78.03916952534698, 79.2723257326069, 78.33344543844309, 78.29140602228651, 78.29140602228651, 78.29140602228651, 77.82897244456404, 77.87101186072061, 77.87101186072061, 79.06212865182395, 80.50548193986683, 80.8558104078384, 80.36535055267821, 80.36535055267821, 79.69271989417278, 79.37041770363894, 78.69778704513352, 78.69778704513352, 78.37548485459969, 77.82897244456404, 77.18436806349635, 77.40857828299815, 77.40857828299815, 78.09522208022243, 78.36147171588081, 78.58568193538262, 78.58568193538262, 78.75383960000897, 78.5576556579449, 78.72581332257124, 79.80482500392368, 79.80482500392368, 80.26725858164616, 79.86087755879913, 80.01502208470663, 80.01502208470663, 80.19719288805184, 80.9679155175893, 82.17304544741151, 82.17304544741151]",77.23743421175956,1.8235962999751791,None
reward-effort-pgACC-TUS,R88533/RE002,B_3,1,2024-08-06_14h13.19.467,2024-08-06 14:16:04,None,None,6,,,2.1777832031249997,1,18,approach,normal,reward,None,80,40,38,accept,1.5069899000227451,success,38,802,"[0.6305912423488264, 0.6726306585054148, 0.6726306585054148, 0.7006569359431404, 0.7006569359431404, 0.7006569359431404, 0.6726306585054148, 0.6726306585054148, 0.7006569359431404, 0.6726306585054148, 0.6726306585054148, 0.6446043810676891, 0.6446043810676891, 0.6586175197865519, 0.7146700746620032, 0.7146700746620032, 0.7426963520997287, 1.1210510975090247, 1.8357211721710276, 1.8357211721710276, 4.049797089751352, 7.230779578933208, 7.230779578933208, 13.102284702136725, 18.483329970180044, 26.947265756373177, 33.78567745117823, 33.78567745117823, 41.156588417300064, 46.38348915943589, 52.25499428263941, 52.25499428263941, 56.66913297908119, 59.37366875182172, 61.50366583708886, 61.50366583708886, 62.65274321203561, 65.5254366494025, 65.5254366494025, 67.69747315082623, 69.98161476200086, 70.80838994641377, 72.27976951189436, 72.27976951189436, 74.24160893253516, 75.12443667182352, 76.09134324342504, 76.09134324342504, 76.55377682114751, 77.11430236990203, 79.94495639111233, 79.94495639111233, 82.20107172484923, 83.79856953879958, 84.89159435887089, 84.89159435887089, 85.38205421403109, 84.34508194883524, 84.52725275218046, 84.52725275218046, 86.0546848725365, 87.3018542185153, 89.36178561018812, 89.36178561018812, 90.60895495616691, 92.33257101858705, 93.04724109324904, 93.04724109324904, 94.51862065872963, 94.36447613282215, 93.13131992556222, 93.07526737068676, 93.07526737068676, 93.22941189659426, 91.73000605367594, 91.77204546983253, 91.77204546983253, 92.17842649267955, 92.234479047555, 92.99118853837359, 94.29441043922783, 94.29441043922783, 95.10717248492188, 95.54157978520662, 95.27533014954824, 95.27533014954824, 95.03710679132756, 94.70079146207485, 94.84092284926348, 94.84092284926348, 94.92500168157666, 94.93901482029553, 95.31736956570481, 95.83585569830274, 95.83585569830274, 96.04605277908568, 96.7186834375911, 96.69065716015336, 96.69065716015336, 96.92888051837404, 97.06901190556266, 97.15309073787584, 97.15309073787584, 97.44736665097197, 97.82572139638125, 97.67157687047376, 97.67157687047376, 98.09197103203965]",91.36634250208475,1.7935323000419885,None
reward-effort-pgACC-TUS,R88533/RE002,B_3,1,2024-08-06_14h13.19.467,2024-08-06 14:16:04,None,None,6,,,2.1777832031249997,1,19,approach,normal,reward,None,65,60,73,accept,1.368335000006482,success,73,875,"[0.6165781036299636, 0.6165781036299636, 0.6165781036299636, 0.6726306585054148, 0.6446043810676891, 0.6586175197865519, 0.6586175197865519, 0.6305912423488264, 0.7006569359431404, 0.6866437972242776, 0.6866437972242776, 0.6446043810676891, 0.6726306585054148, 0.6586175197865519, 0.7146700746620032, 0.7146700746620032, 0.9949328490392593, 1.5834846752314973, 3.8396000089684095, 3.8396000089684095, 7.525055492029327, 14.209322660926887, 21.31398399139033, 21.31398399139033, 28.572789847761264, 38.36797381224636, 44.88408331651757, 44.88408331651757, 52.53525705701666, 56.486962175735975, 60.90110087217776, 60.90110087217776, 63.32537387054102, 66.43629066612857, 68.15990672854869, 68.15990672854869, 69.8554965135311, 71.83134907289075, 72.93838703168092, 72.93838703168092, 73.38680747068452, 73.38680747068452, 73.65305710634291, 73.65305710634291, 73.89128046456358, 73.89128046456358, 73.91930674200131, 73.91930674200131, 74.4518060133181, 74.84417389744625, 75.1664760879801, 75.1664760879801, 75.46075200107622, 75.5027914172328, 75.53081769467053, 75.53081769467053, 75.55884397210826, 75.90917244007983, 75.85311988520438, 75.85311988520438, 75.71298849801576, 75.51680455595167, 75.40469944620077, 75.37667316876305, 75.37667316876305, 75.3906863074819, 75.48877827851395, 75.74101477545348, 75.74101477545348, 75.89515930136098, 75.79706733032893, 75.62890966570257, 75.62890966570257, 75.55884397210826, 76.06331696598731, 76.10535638214391, 76.45568485011547, 76.45568485011547, 77.01621039886999, 77.14232864733975, 76.96015784399454, 77.18436806349635, 77.18436806349635, 77.2404206183718, 78.05318266406583, 78.52962938050717, 78.38949799331854, 78.38949799331854, 79.07614179054282, 80.22521916548956, 80.60357391089887, 80.01502208470663, 80.01502208470663, 79.73475931032937]",75.278581197731,1.5577166000148281,None
reward-effort-pgACC-TUS,R88533/RE002,B_3,1,2024-08-06_14h13.19.467,2024-08-06 14:16:04,None,None,6,,,2.1777832031249997,1,20,approach,normal,reward,None,60,40,40,accept,1.1283181000035256,success,40,915,"[0.7006569359431404, 0.7006569359431404, 0.6866437972242776, 0.6726306585054148, 0.6726306585054148, 0.6726306585054148, 0.7146700746620032, 0.728683213380866, 0.728683213380866, 0.728683213380866, 1.0089459877581222, 2.0038788367973814, 2.0038788367973814, 5.451110961637632, 11.028340171745029, 15.512544561781127, 15.512544561781127, 22.6452321696823, 30.562655545839785, 36.25198986569808, 42.83816506356361, 42.83816506356361, 49.312235151678216, 53.58624246093137, 53.58624246093137, 57.888276047622256, 61.069258536804114, 63.927938835452125, 66.61846146947379, 66.61846146947379, 68.06181475751666, 69.92556220712541, 70.50010089459879, 70.50010089459879, 71.15871841438533, 71.57911257595121, 72.44792717652071, 72.44792717652071, 73.63904396762405, 74.22759579381629, 74.54989798435014, 74.54989798435014, 74.53588484563127, 74.53588484563127, 74.11549068406539, 74.11549068406539, 74.05943812918994, 74.12950382278424, 73.90529360328244, 73.93331988072018, 73.93331988072018, 73.93331988072018, 73.91930674200131, 73.21864980605817, 73.21864980605817, 72.68615053474137, 73.5829914127486, 73.5829914127486, 74.00338557431448, 74.61996367794444, 75.12443667182352, 75.11042353310465, 75.11042353310465, 74.83016075872739, 74.69002937153877, 74.91423959104057, 74.91423959104057, 75.0123315620726, 74.88621331360285, 74.71805564897649, 74.71805564897649, 74.7460819264142, 74.76009506513309, 74.66200309410104, 74.66200309410104, 74.15753010022198, 73.51292571915428, 73.44286002555998, 73.44286002555998, 73.51292571915428, 73.54095199659201, 74.17154323894084, 74.17154323894084, 74.46581915203696, 74.42377973588037, 74.32568776484834]",72.88141558246323,1.4193977999966592,None
reward-effort-pgACC-TUS,R88533/RE002,B_3,1,2024-08-06_14h13.19.467,2024-08-06 14:16:04,None,None,6,,,2.1777832031249997,1,21,approach,normal,reward,None,65,60,56,accept,1.0048430999740958,success,56,971,"[0.6726306585054148, 0.7006569359431404, 0.6586175197865519, 0.6586175197865519, 0.6866437972242776, 0.7426963520997287, 0.728683213380866, 0.728683213380866, 0.7426963520997287, 0.7707226295374544, 0.7847357682563172, 0.7847357682563172, 0.868814600569494, 1.4153270106051437, 3.3911795699647995, 3.3911795699647995, 5.983610232954419, 12.191430685410642, 17.053989820856035, 17.053989820856035, 24.943386919575797, 33.925808838366855, 42.347705208403404, 42.347705208403404, 49.78868186811955, 53.726373848120005, 57.313737360148885, 57.313737360148885, 60.20044393623461, 61.92405999865475, 63.42346584157307, 66.6464877469115, 66.6464877469115, 68.07582789623552, 70.00964103943859, 70.69628483666285, 70.69628483666285, 71.21477096926078, 70.57016658819309, 70.48608775587992, 70.48608775587992, 70.09371987175176, 70.12174614918949, 70.06569359431404, 70.06569359431404, 70.27589067509697, 70.45806147844219, 70.62621914306855, 70.62621914306855, 70.55615344947424, 70.9064819174458, 71.21477096926078, 72.30779578933209, 72.30779578933209, 74.11549068406539, 74.57792426178787, 74.91423959104057, 74.91423959104057, 74.76009506513309, 74.7881213425708, 74.80213448128966, 74.80213448128966, 75.08239725566692, 75.20851550413668, 75.57285711082712, 75.85311988520438, 75.85311988520438, 75.78305419161006, 75.6569359431403, 75.72700163673461, 75.85311988520438, 75.85311988520438, 75.74101477545348, 75.40469944620077, 75.36266003004418, 75.36266003004418, 75.34864689132532, 75.0123315620726, 74.9002264523217, 74.92825272975944, 74.92825272975944, 74.81614762000854, 74.5218717069124, 74.4518060133181, 74.49384542947467, 74.49384542947467, 74.12950382278424, 73.79318849353155, 73.82121477096926, 73.82121477096926]",72.78608029445785,1.4929780999664217,None
reward-effort-pgACC-TUS,R88533/RE002,B_3,1,2024-08-06_14h13.19.467,2024-08-06 14:16:04,None,None,6,,,2.1777832031249997,1,22,approach,normal,reward,None,80,80,62,accept,0.8739255999680609,success,62,1033,"[0.7006569359431404, 0.7006569359431404, 0.6866437972242776, 0.6866437972242776, 0.7006569359431404, 0.7146700746620032, 0.7567094908185916, 0.7567094908185916, 0.8267751844129057, 0.9388802941638081, 1.3312481782919667, 1.3312481782919667, 1.975852559359656, 3.9937445348759004, 6.7963722786484615, 6.7963722786484615, 12.37360148875586, 19.996748951817224, 27.78805407950495, 35.14495190690792, 35.14495190690792, 44.95414901011189, 52.731440999080746, 57.79018407659022, 57.79018407659022, 62.62471693459789, 66.42227752740972, 68.76247169345979, 68.76247169345979, 71.90141476648506, 74.12950382278424, 75.0123315620726, 75.58687024954598, 75.58687024954598, 76.56778995986639, 77.38055200556042, 78.15127463509788, 78.15127463509788, 77.99713010919038, 79.34239142620122, 82.11699289253606, 82.11699289253606, 83.35014909979598, 83.30810968363939, 83.30810968363939, 83.30810968363939, 83.98074034214481, 83.35014909979598, 82.76159727360374, 83.13995201901304, 83.13995201901304, 83.54633304186005, 84.5833053070559, 86.08271114997422, 86.08271114997422, 86.61521042129101, 86.34896078563263, 86.3209345081949, 86.83942064079282, 86.83942064079282, 86.06869801125536, 85.35402793659335, 85.46613304634427, 85.64830384968948, 85.64830384968948, 85.69034326584607, 85.92856662406673, 86.4750790341024, 86.4750790341024, 87.00757830541917, 86.72731553104191, 86.76935494719851, 86.76935494719851, 86.76935494719851, 86.69928925360419, 86.4750790341024, 86.68527611488533, 86.68527611488533, 86.76935494719851, 86.71330239232306, 86.55915786641556, 86.61521042129101, 87.94645859958298, 87.94645859958298, 88.07257684805275, 86.78336808591737, 87.24580166363984, 87.24580166363984, 87.8623797672698, 88.71718122912043, 89.19362794556177, 90.2025739333199, 90.2025739333199, 90.18856079460103, 90.23060021075761, 90.14652137844445]",85.4308741811807,1.5999279000097886,None
reward-effort-pgACC-TUS,R88533/RE002,B_3,1,2024-08-06_14h13.19.467,2024-08-06 14:16:04,None,None,6,,,2.1777832031249997,1,23,approach,normal,reward,None,70,60,49,accept,1.4926900999853387,success,49,1082,"[0.9528934328826708, 0.9388802941638081, 0.9528934328826708, 0.9528934328826708, 1.2751956234165154, 1.9898656980785185, 1.9898656980785185, 2.9988116858366407, 4.2039416156588425, 6.502096365552343, 6.502096365552343, 10.986300755588442, 15.834846752314972, 22.449048227618217, 29.69384094527029, 29.69384094527029, 35.35514898769087, 42.025403017869564, 47.00006726306586, 47.00006726306586, 51.76453442747921, 53.9926234837784, 56.529001591892566, 56.529001591892566, 58.350709625344734, 59.87814174570077, 61.51767897580772, 61.51767897580772, 63.68971547723146, 66.3101724176588, 68.15990672854869, 69.77141768121791, 69.77141768121791, 71.8173359341719, 73.65305710634291, 74.87220017488399, 74.87220017488399, 75.93719871751755, 77.6888410573754, 79.81883814264256, 80.63160018833659, 80.63160018833659, 80.60357391089887, 80.72969215936864, 80.09910091701981, 80.09910091701981, 80.00100894598778, 80.99594179502702, 81.52844106634382, 81.64054617609472, 81.64054617609472, 81.48640165018722, 81.22015201452884, 81.29021770812315, 81.41633595659292, 81.41633595659292, 81.06600748862134, 80.93988924015157, 80.54752135602342, 80.54752135602342, 80.44942938499138, 80.99594179502702, 80.99594179502702, 79.44048339723325, 79.44048339723325, 77.77291988968858, 77.0862760924643, 77.21239434093407, 77.21239434093407, 78.47357682563172, 79.81883814264256, 80.84179726911954, 80.9679155175893, 80.9679155175893, 80.95390237887044, 80.75771843680636, 80.71567902064977, 80.71567902064977, 81.09403376605907, 81.304230846842, 81.37429654043632, 81.37429654043632, 81.36028340171745, 82.03291406022288, 82.70554471872829, 82.91574179951124, 82.91574179951124, 83.28008340620167, 83.99475348086366, 84.77948924911999, 84.77948924911999, 84.8495549427143]",79.81409175694748,1.5335333000402898,None
reward-effort-pgACC-TUS,R88533/RE002,B_3,1,2024-08-06_14h13.19.467,2024-08-06 14:16:04,None,None,6,,,2.1777832031249997,1,24,approach,normal,reward,0.738,100,60,63,reject,1.4973527999827638,None,0,1082,"null",None,None,None
reward-effort-pgACC-TUS,R88533/RE002,B_3,1,2024-08-06_14h13.19.467,2024-08-06 14:16:04,None,None,6,,,2.1777832031249997,1,25,approach,normal,reward,None,95,80,82,reject,1.6546482000267133,None,0,1082,"null",None,None,None
reward-effort-pgACC-TUS,R88533/RE002,B_3,1,2024-08-06_14h13.19.467,2024-08-06 14:16:04,None,None,6,,,2.1777832031249997,1,26,approach,normal,reward,None,75,20,19,reject,1.6122282000724226,None,0,1082,"null",None,None,None
reward-effort-pgACC-TUS,R88533/RE002,B_3,1,2024-08-06_14h13.19.467,2024-08-06 14:16:04,None,None,6,,,2.1777832031249997,1,27,approach,normal,reward,None,100,100,77,reject,1.2827871999470517,None,0,1082,"null",None,None,None
reward-effort-pgACC-TUS,R88533/RE002,B_3,1,2024-08-06_14h13.19.467,2024-08-06 14:16:04,None,None,6,,,2.1777832031249997,1,28,approach,normal,reward,None,75,80,72,accept,0.9199564999435097,success,72,1154,"[0.3082890518149818, 0.3503284679715702, 0.3503284679715702, 0.3783547454092958, 0.434407300284747, 0.434407300284747, 0.5184861325979239, 0.7006569359431404, 1.1210510975090247, 1.1210510975090247, 2.0879576691105584, 4.09183650590794, 7.300845272527523, 7.300845272527523, 12.093338714378604, 15.988991278222464, 24.66312414519854, 32.468442411605125, 32.468442411605125, 41.60500885630368, 52.17091545032623, 59.37366875182172, 59.37366875182172, 64.79675343602163, 70.47207461716106, 74.95627900719715, 75.86713302392324, 75.86713302392324, 76.90410528911909, 78.97804981951079, 79.97298266855005, 81.9908746440663, 81.9908746440663, 84.2890293939598, 85.66231698840834, 88.7311943678393, 88.7311943678393, 91.63191408264389, 92.19243963139841, 91.75803233111365, 90.93125714670076, 90.93125714670076, 90.44079729154056, 91.02934911773279, 90.83316517566871, 90.83316517566871, 88.5069841483375, 87.07764399901349, 86.55915786641556, 86.34896078563263, 86.34896078563263, 84.68139727808794, 84.56929216833704, 84.54126589089933, 84.54126589089933, 84.69541041680681, 83.99475348086366, 83.5323199031412, 82.53738705410194, 82.53738705410194, 82.22909800228695, 83.05587318669986, 84.23297683908434, 84.31705567139751, 84.31705567139751, 84.62534472321249, 84.82152866527657, 84.63935786193136, 84.63935786193136, 83.85462209367503, 83.72850384520527, 84.05080603573913, 83.91067464855048, 83.91067464855048, 83.1539651577319, 81.80870384072108, 80.77173157552522, 80.8137709916818, 80.8137709916818, 81.06600748862134, 81.16409945965339, 81.41633595659292, 81.66857245353243, 81.66857245353243, 81.33225712427974, 80.68765274321204, 80.53350821730454]",84.16494531078794,1.4433863000012934,None
reward-effort-pgACC-TUS,R88533/RE002,B_3,1,2024-08-06_14h13.19.467,2024-08-06 14:16:04,None,None,6,,,2.1777832031249997,1,29,approach,normal,reward,None,55,20,19,reject,3.8552403999492526,None,0,1154,"null",None,None,None
reward-effort-pgACC-TUS,R88533/RE002,B_3,1,2024-08-06_14h13.19.467,2024-08-06 14:16:04,None,None,6,,,2.1777832031249997,1,30,approach,normal,reward,None,85,40,44,accept,1.9914729000302032,success,44,1198,"[0.21019708078294214, 0.21019708078294214, 0.2662496356583933, 0.2382233582206677, 0.2382233582206677, 0.2382233582206677, 0.25223649693953054, 0.21019708078294214, 0.2382233582206677, 0.2382233582206677, 0.2382233582206677, 0.2382233582206677, 0.25223649693953054, 0.2662496356583933, 0.2662496356583933, 0.3503284679715702, 0.5885518261922379, 0.5885518261922379, 0.728683213380866, 1.022959126476985, 1.9057868657653416, 3.7274948992175068, 3.7274948992175068, 5.955583955516693, 11.308602946122285, 15.946951862065875, 15.946951862065875, 24.537005896728775, 34.50034752584023, 43.791058496446276, 52.82953297011278, 52.82953297011278, 61.419587004775686, 67.59938117979418, 71.83134907289075, 71.83134907289075, 74.91423959104057, 76.52575054370979, 77.77291988968858, 80.53350821730454, 80.53350821730454, 81.64054617609472, 82.42528194435104, 83.92468778726936, 84.97567319118406, 84.97567319118406, 86.57317100513441, 89.6000089684088, 92.03829510549092, 93.18737248043767, 93.18737248043767, 94.02816080356943, 94.18230532947693, 94.1542790520392, 94.1542790520392, 93.98612138741285, 93.78993744534877, 92.55678123808885, 92.44467612833795, 92.44467612833795, 92.20645277011728, 92.33257101858705, 92.57079437680771, 92.57079437680771, 92.31855787986818, 91.94020313445887, 91.51980897289299, 91.54783525033072, 91.54783525033072, 90.72106006591781, 90.72106006591781, 91.33763816954777, 91.33763816954777, 91.7440191923948, 91.68796663751935, 92.09434766036637, 92.09434766036637, 92.09434766036637, 91.57586152776844, 91.4777695567364, 91.4777695567364, 91.73000605367594, 91.98224255061547, 92.02428196677207, 92.02428196677207, 92.02428196677207, 91.23954619851574, 90.94527028541962, 90.5809286787292, 90.5809286787292, 89.13757539068632, 88.40889217730546, 86.55915786641556, 86.55915786641556, 85.52218560121972, 84.48521333602386, 84.9616600524652, 84.9616600524652, 85.87251406919128, 86.55915786641556, 86.78336808591737, 86.78336808591737]",90.17891240400768,1.6876912999432534,None
reward-effort-pgACC-TUS,R88533/RE002,B_3,1,2024-08-06_14h13.19.467,2024-08-06 14:16:04,None,None,6,,,2.1777832031249997,1,31,approach,normal,reward,0.182,100,40,42,reject,1.1787119000218809,None,0,1198,"null",None,None,None
reward-effort-pgACC-TUS,R88533/RE002,B_3,1,2024-08-06_14h13.19.467,2024-08-06 14:16:04,None,None,6,,,2.1777832031249997,1,32,approach,normal,reward,None,70,100,101,accept,1.3586939999368042,success,101,1299,"[0.28026277437725616, 0.2662496356583933, 0.28026277437725616, 0.28026277437725616, 0.1681576646263537, 0.1961839420640793, 0.22421021950180492, 0.22421021950180492, 0.21019708078294214, 0.25223649693953054, 0.22421021950180492, 0.28026277437725616, 0.28026277437725616, 0.5044729938790611, 1.0369722651958477, 4.119862783345665, 4.119862783345665, 9.767157687047376, 16.535503688258114, 28.628842402636717, 28.628842402636717, 40.371852649043745, 52.54927019573553, 60.0182731328894, 60.0182731328894, 66.92675052128877, 72.32180892805094, 76.60982937602296, 80.77173157552522, 80.77173157552522, 84.00876661958253, 86.20882939844398, 88.22672137396023, 88.22672137396023, 89.71211407815969, 91.04336225645167, 91.73000605367594, 92.03829510549092, 92.03829510549092, 92.03829510549092, 92.03829510549092, 92.08033452164752, 92.5007286832134, 92.5007286832134, 92.3886235734625, 92.16441335396068, 92.30454474114931, 92.3465841573059, 92.3465841573059, 91.67395349880049, 89.75415349431628, 89.71211407815969, 89.90829802022378, 89.90829802022378, 90.14652137844445, 91.32362503082891, 92.24849218627386, 92.76697831887178, 92.76697831887178, 93.7058586130356, 94.05618708100715, 93.49566153225265, 93.49566153225265, 93.49566153225265, 94.16829219075807, 94.77085715566916, 94.2663841617901, 94.2663841617901, 92.69691262527748, 92.41664985090021, 92.44467612833795, 92.44467612833795, 92.3886235734625, 91.49178269545527, 91.42171700186096, 91.91217685702115, 91.91217685702115, 92.17842649267955, 92.29053160243045, 92.20645277011728, 92.20645277011728, 92.96316226093586, 93.49566153225265, 93.10329364812449, 92.7249389027152, 92.7249389027152, 92.3886235734625]",90.55945693391804,1.453381499974057,None
reward-effort-pgACC-TUS,R88533/RE002,B_3,1,2024-08-06_14h13.19.467,2024-08-06 14:16:04,None,None,6,,,2.1777832031249997,1,33,approach,normal,reward,None,100,80,72,reject,1.2344197999918833,None,0,1299,"null",None,None,None
reward-effort-pgACC-TUS,R88533/RE002,B_3,1,2024-08-06_14h13.19.467,2024-08-06 14:16:04,None,None,6,,,2.1777832031249997,1,34,approach,normal,reward,None,90,20,22,reject,1.2623345999745652,None,0,1299,"null",None,None,None
reward-effort-pgACC-TUS,R88533/RE002,B_3,1,2024-08-06_14h13.19.467,2024-08-06 14:16:04,None,None,6,,,2.1777832031249997,1,35,approach,normal,reward,None,65,40,37,accept,0.8704168000258505,success,37,1336,"[0.2382233582206677, 0.2382233582206677, 0.2382233582206677, 0.2382233582206677, 0.2382233582206677, 0.2382233582206677, 0.25223649693953054, 0.5465124100356494, 1.961839420640793, 1.961839420640793, 4.778480303132217, 9.949328490392594, 14.069191273738257, 14.069191273738257, 20.86556355238672, 29.077262841640326, 35.57935920719267, 35.57935920719267, 44.28151835160647, 51.73650815004148, 57.18761911167912, 57.18761911167912, 60.92912714961549, 64.0120176677653, 68.04780161879779, 68.04780161879779, 70.27589067509697, 71.35490235644941, 72.37786148292639, 72.37786148292639, 74.60595053922559, 75.19450236541783, 75.19450236541783, 75.19450236541783, 75.34864689132532, 75.46075200107622, 75.64292280442143, 75.64292280442143, 75.9231855787987, 75.69897535929688, 75.81108046904778, 76.07733010470619, 76.07733010470619, 76.06331696598731, 75.58687024954598, 75.44673886235735, 75.44673886235735, 75.0543709782292, 74.64798995538217, 74.38174031972378, 74.38174031972378, 74.36772718100492, 74.50785856819356, 74.49384542947467, 74.49384542947467, 74.57792426178787, 74.87220017488399, 75.23654178157442, 75.69897535929688, 75.69897535929688, 75.64292280442143, 75.75502791417233, 76.07733010470619, 76.32956660164571, 76.32956660164571, 76.27351404677026, 76.28752718548913, 76.24548776933253, 76.24548776933253, 75.97923813367414, 75.86713302392324, 75.83910674648551, 75.83910674648551, 75.97923813367414, 75.993251272393, 76.07733010470619, 76.07733010470619, 76.06331696598731, 76.20344835317596, 76.51173740499092, 76.51173740499092, 77.04423667630772, 78.82390529360329, 80.54752135602342]",75.04701982349138,1.3965601000236347,None
reward-effort-pgACC-TUS,R88533/RE002,B_3,1,2024-08-06_14h13.19.467,2024-08-06 14:16:04,None,None,6,,,2.1777832031249997,1,36,approach,normal,reward,None,95,40,37,reject,1.2416813999880105,None,0,1336,"null",None,None,None
reward-effort-pgACC-TUS,R88533/RE002,B_3,1,2024-08-06_14h13.19.467,2024-08-06 14:16:04,None,None,6,,,2.1777832031249997,1,37,approach,normal,reward,0.466,60,80,66,accept,0.8630006000166759,success,66,1402,"[0.3923678841281586, 0.3923678841281586, 0.3363153292527074, 0.3503284679715702, 0.3503284679715702, 0.364341606690433, 0.40638102284702143, 0.8127620456940429, 0.8127620456940429, 2.6484832178650706, 8.548014618506313, 14.615703683773908, 14.615703683773908, 22.61720589224457, 32.776731463420106, 41.73112710477344, 41.73112710477344, 50.68552274612678, 55.1977534136006, 59.541826416448075, 59.541826416448075, 64.68464832627072, 69.70135198762361, 73.2466760834959, 73.2466760834959, 74.73206878769535, 76.39963229524002, 77.92706441559606, 77.92706441559606, 79.23028631645032, 80.42140310755366, 81.8367301181588, 81.8367301181588, 82.56541333153966, 82.60745274769626, 81.73863814712675, 81.47238851146837, 81.47238851146837, 81.26219143068542, 81.29021770812315, 80.58956077218001, 80.58956077218001, 79.06212865182395, 79.0481155131051, 77.8850249994395, 76.77798704064932, 76.77798704064932, 76.23147463061368, 76.18943521445708, 76.23147463061368, 76.23147463061368, 76.38561915652117, 76.89009215040022, 76.84805273424364, 76.84805273424364, 76.45568485011547, 76.09134324342504, 76.07733010470619, 76.10535638214391, 76.10535638214391, 76.0352906885496, 76.24548776933253, 76.62384251474184, 77.18436806349635, 77.18436806349635, 77.59074908634337, 78.45956368691286, 78.38949799331854, 78.19331405125448, 78.19331405125448, 77.92706441559606, 77.75890675096971, 77.67482791865655, 77.67482791865655, 78.43153740947514, 78.1793009125356, 77.87101186072061, 77.87101186072061, 77.87101186072061, 77.89903813815835]",77.0387233102544,1.3208288999740034,None
reward-effort-pgACC-TUS,R88533/RE002,B_3,1,2024-08-06_14h13.19.467,2024-08-06 14:16:04,None,None,6,,,2.1777832031249997,1,38,approach,normal,reward,None,85,100,84,accept,1.2761258999817073,success,84,1486,"[0.5465124100356494, 0.5184861325979239, 0.5184861325979239, 0.5324992713167866, 0.5184861325979239, 0.44842043900360984, 0.44842043900360984, 0.4764467164413354, 0.4624335777224727, 0.4624335777224727, 0.5184861325979239, 0.6305912423488264, 0.8548014618506312, 1.4433532880428692, 1.4433532880428692, 2.1299970852671466, 3.2230219053384452, 4.932624829039709, 4.932624829039709, 8.141633595659291, 14.041164996300534, 22.589179614806845, 34.20607161274412, 34.20607161274412, 44.96816214883075, 55.47801618797785, 60.29853590726666, 66.17004103047017, 66.17004103047017, 70.97654761104012, 74.56391112306899, 76.8620658729625, 76.8620658729625, 81.65455931481358, 84.77948924911999, 88.49297100961863, 90.93125714670076, 90.93125714670076, 91.95421627317775, 91.87013744086457, 93.34151700634517, 93.34151700634517, 93.8179637227865, 94.77085715566916, 95.23329073339164, 95.4715140916123, 95.4715140916123, 95.52756664648776, 95.07914620748414, 94.5326337974485, 94.4205286876976, 94.4205286876976, 94.18230532947693, 94.1963184681958, 94.1963184681958, 92.92112284477928, 92.234479047555, 92.40263671218135, 92.17842649267955, 92.17842649267955, 91.54783525033072, 91.16948050492142, 91.18349364364029, 90.62296809488578, 90.62296809488578, 90.38474473666511, 90.48283670769715, 90.5809286787292, 90.5809286787292, 91.07138853388939, 90.98730970157621, 90.91724400798189, 90.72106006591781, 90.72106006591781, 92.0102688280532, 92.75296518015293, 92.47270240577566, 91.77204546983253, 91.77204546983253, 91.71599291495708, 92.68289948655861, 92.80901773502838, 92.85105715118496, 92.85105715118496, 92.85105715118496, 93.13131992556222, 93.18737248043767, 92.73895204143406, 92.36059729602476, 92.36059729602476, 92.48671554449453, 92.75296518015293, 93.78993744534877, 93.78993744534877]",92.21747950222398,1.5710639999015257,None
reward-effort-pgACC-TUS,R88533/RE002,B_3,1,2024-08-06_14h13.19.467,2024-08-06 14:16:04,None,None,6,,,2.1777832031249997,1,39,approach,normal,reward,None,85,60,55,accept,0.8676224000519142,success,55,1541,"[0.434407300284747, 0.4203941615658843, 0.44842043900360984, 0.44842043900360984, 0.5044729938790611, 0.49045985516019824, 0.49045985516019824, 0.5044729938790611, 0.49045985516019824, 0.5044729938790611, 0.49045985516019824, 0.49045985516019824, 0.6165781036299636, 0.8968408780072197, 1.6955897849823998, 1.6955897849823998, 2.970785408398915, 5.465124100356495, 10.397748929396203, 10.397748929396203, 16.941884711105136, 25.602004439362346, 34.00988767068004, 44.631846819578044, 44.631846819578044, 53.92255779018408, 61.60175780812091, 61.60175780812091, 71.1727315531042, 75.36266003004418, 77.0862760924643, 77.32449945068497, 77.32449945068497, 77.40857828299815, 79.77679872648596, 81.22015201452884, 81.22015201452884, 80.37936369139706, 81.36028340171745, 81.7946907020022, 81.7946907020022, 83.32212282235825, 84.26100311652206, 85.59225129481402, 85.59225129481402, 87.68020896392458, 92.09434766036637, 94.2663841617901, 94.2663841617901, 95.19125131723504, 95.63967175623867, 95.55559292392547, 95.4715140916123, 95.4715140916123, 95.38743525929914, 95.3594089818614, 95.3594089818614, 95.33138270442369, 95.33138270442369, 94.93901482029553, 94.75684401695031, 94.39250241025987, 94.39250241025987, 94.2663841617901, 94.4205286876976, 93.7058586130356, 92.90710970606041, 92.90710970606041, 94.0421739422883, 94.35046299410328, 93.83197686150537, 93.83197686150537, 94.1963184681958, 94.72881773951258, 95.56960606264435, 96.03203964036682, 96.03203964036682, 96.55052577296475, 95.8498688370216, 95.807829420865, 95.807829420865, 95.44348781417457, 94.85493598798234, 95.00908051388983, 94.72881773951258, 94.72881773951258, 94.49059438129191, 94.54664693616736, 94.35046299410328, 94.35046299410328, 94.14026591332035, 93.9300688325374, 93.63579291944127, 93.63579291944127, 92.5007286832134, 92.02428196677207, 91.09941481132711, 91.09941481132711, 91.12744108876484]",93.03506574321457,1.6414259999291971,None
reward-effort-pgACC-TUS,R88533/RE002,B_3,1,2024-08-06_14h13.19.467,2024-08-06 14:16:04,None,None,6,,,2.1777832031249997,1,40,approach,normal,reward,None,75,60,56,accept,0.8774238999467343,success,56,1597,"[0.5605255487545123, 0.5605255487545123, 0.5745386874733751, 0.6165781036299636, 0.5885518261922379, 0.5885518261922379, 0.6165781036299636, 1.0790116813524362, 2.2421021950180493, 2.2421021950180493, 6.291899284769401, 12.135378130535193, 17.053989820856035, 17.053989820856035, 26.667002981995925, 33.88376942221027, 43.30059864128607, 43.30059864128607, 49.718616174525245, 54.34295195174996, 59.10741911616332, 62.03616510840565, 62.03616510840565, 65.77767314634202, 68.14589358982983, 69.46312862940293, 69.46312862940293, 70.37398264612902, 71.50904688235691, 73.90529360328244, 73.90529360328244, 74.70404251025762, 75.37667316876305, 75.93719871751755, 75.93719871751755, 77.01621039886999, 78.96403668079192, 82.01890092150401, 82.01890092150401, 84.40113450371068, 86.15277684356855, 87.93244546086412, 89.50191699737675, 89.50191699737675, 90.18856079460103, 92.36059729602476, 92.68289948655861, 92.68289948655861, 94.47658124257305, 95.03710679132756, 95.23329073339164, 94.77085715566916, 94.77085715566916, 92.6128337929643, 92.44467612833795, 91.49178269545527, 91.49178269545527, 91.19750678235916, 90.91724400798189, 89.75415349431628, 89.75415349431628, 88.59106298065068, 88.91336517118451, 90.18856079460103, 90.24461334947648, 90.24461334947648, 89.96435057509923, 90.28665276563306, 90.2025739333199, 90.95928342413848, 90.95928342413848, 91.00132284029507, 89.9363242976615, 89.26369363915609, 89.26369363915609, 90.00638999125582, 89.19362794556177, 86.85343377951168, 86.85343377951168, 87.00757830541917, 87.96047173830183, 88.29678706755455, 87.39994618954732, 87.39994618954732, 87.34389363467187, 87.98849801573957, 88.18468195780365, 88.82928633887134, 88.82928633887134, 90.81915203694986]",87.63929963960017,1.4935228999238461,None
reward-effort-pgACC-TUS,R88533/RE002,B_3,1,2024-08-06_14h13.19.467,2024-08-06 14:16:04,None,None,6,,,2.1777832031249997,1,41,approach,normal,reward,None,85,100,93,accept,0.7638191999867558,success,93,1690,"[0.5885518261922379, 0.5745386874733751, 0.5465124100356494, 0.6025649649111007, 0.6165781036299636, 0.6165781036299636, 0.5885518261922379, 0.6025649649111007, 0.6025649649111007, 0.6025649649111007, 0.6165781036299636, 0.7146700746620032, 1.4433532880428692, 1.4433532880428692, 3.8956525638438606, 10.860182507118676, 17.75464675679918, 17.75464675679918, 27.99825116028789, 39.51705118719312, 51.26006143360014, 60.6208380978005, 60.6208380978005, 67.64142059595078, 73.21864980605817, 76.28752718548913, 76.28752718548913, 83.12593888029417, 87.28784107979642, 91.08540167260824, 93.2153987578754, 93.2153987578754, 95.1351987623596, 95.9619739467725, 96.11611847268, 96.11611847268, 96.57855205040246, 95.93394766933478, 95.59763234008207, 95.59763234008207, 95.56960606264435, 95.89190825317819, 95.68171117239524, 95.59763234008207, 95.59763234008207, 95.63967175623867, 95.28934328826709, 94.88296226542006, 94.88296226542006, 94.46256810385418, 93.86000313894309, 93.83197686150537, 93.74789802919217, 93.74789802919217, 92.59882065424543, 91.44974327929867, 90.74908634335554, 90.74908634335554, 90.48283670769715, 91.81408488598912, 92.05230824420978, 92.4586892670568, 92.4586892670568, 93.32750386762629, 94.28039730050897, 94.57467321360508, 94.82690971054461, 94.82690971054461, 94.71480460079371, 94.7988834331069, 94.96704109773326, 94.96704109773326, 94.25237102307125, 93.8179637227865, 94.3084235779467, 94.2663841617901, 94.2663841617901, 94.28039730050897, 94.67276518463713, 94.81289657182576, 94.84092284926348, 94.84092284926348, 95.5135535077689, 95.87789511445933, 96.25624985986863, 96.04605277908568, 96.04605277908568, 96.20019730499317]",94.09914539150599,1.46478829998523,None
reward-effort-pgACC-TUS,R88533/RE002,B_3,1,2024-08-06_14h13.19.467,2024-08-06 14:16:04,None,None,6,,,2.1777832031249997,1,42,approach,normal,reward,None,50,80,88,accept,2.0210763999493793,success,88,1778,"[4.624335777224727, 4.231967893096568, 3.8816394251249977, 3.8816394251249977, 3.6854554830609185, 3.671442344342055, 3.64341606690433, 3.64341606690433, 3.64341606690433, 3.615389789466604, 3.5032846797157022, 3.4612452635591135, 3.4612452635591135, 3.419205847402525, 3.4051927086836624, 3.4332189861213878, 3.4332189861213878, 3.4472321248402507, 3.475258402277976, 3.5453240958722905, 3.5453240958722905, 3.531310957153427, 3.7555211766552326, 4.596309499787001, 6.165781036299635, 6.165781036299635, 10.355709513239615, 17.838725589112354, 26.975292033810906, 26.975292033810906, 35.52330665231722, 48.44342055110872, 56.7812380888321, 63.53557095132397, 63.53557095132397, 71.29884980157397, 74.32568776484834, 74.56391112306899, 74.56391112306899, 76.07733010470619, 77.07226295374544, 76.93213156655682, 76.39963229524002, 76.39963229524002, 75.83910674648551, 75.6569359431403, 75.41871258491963, 75.41871258491963, 74.85818703616512, 73.90529360328244, 73.63904396762405, 73.63904396762405, 73.06450528015068, 72.25174323445664, 71.04661330463443, 70.7523373915383, 70.7523373915383, 70.48608775587992, 70.35996950741016, 70.37398264612902, 70.37398264612902, 70.33194322997242, 70.17779870406494, 69.98161476200086, 69.98161476200086, 70.03766731687631, 69.7433914037802, 69.44911549068408, 69.12681330015022, 69.12681330015022, 68.97266877424273, 68.9866819129616, 68.944642496805, 68.67839286114662, 68.67839286114662, 68.73444541602207, 68.70641913858434, 68.6083271675523, 68.6083271675523, 68.65036658370889, 68.6083271675523, 68.51023519652027, 68.25799869958074, 68.25799869958074, 68.3420775318939, 69.12681330015022, 70.00964103943859, 70.00964103943859, 70.38799578484787, 70.54214031075537, 70.65424542050629, 70.7523373915383]",70.43853497367003,1.5319864000193775,None
reward-effort-pgACC-TUS,R88533/RE002,B_3,1,2024-08-06_14h13.19.467,2024-08-06 14:16:04,None,None,6,,,2.1777832031249997,1,43,approach,normal,reward,None,75,80,79,accept,0.8059103999985382,success,79,1857,"[0.79874890697518, 0.79874890697518, 0.8267751844129057, 0.79874890697518, 0.79874890697518, 0.8407883231317685, 0.8127620456940429, 0.8267751844129057, 0.8267751844129057, 0.8267751844129057, 0.79874890697518, 0.8127620456940429, 0.8127620456940429, 0.8127620456940429, 0.8127620456940429, 0.8407883231317685, 0.9108540167260825, 0.9108540167260825, 1.3032219008542412, 2.8026277437725615, 5.226900742135827, 5.226900742135827, 10.762090536086637, 18.609448218649806, 27.56384386000314, 27.56384386000314, 38.25586870249546, 45.514674558866396, 55.16972713616287, 55.16972713616287, 60.438667294455286, 64.53050380036322, 67.40319723773011, 69.57523373915384, 69.57523373915384, 70.55615344947424, 72.41990089908299, 74.0734512679088, 74.0734512679088, 75.33463375260645, 76.16140893701936, 75.96522499495528, 75.96522499495528, 76.13338265958163, 76.31555346292686, 76.42765857267774, 76.42765857267774, 76.65186879217956, 76.8620658729625, 77.18436806349635, 77.18436806349635, 77.74489361225085, 79.09015492926169, 80.72969215936864, 81.2341651532477, 81.2341651532477, 81.80870384072108, 83.33613596107712, 85.185870271967, 85.185870271967, 86.62922356000988, 87.54007757673595, 90.02040312997468, 90.02040312997468, 90.41277101410283, 89.6000089684088, 87.87639290598867, 87.9044191834264, 87.9044191834264, 87.84836662855095, 86.20882939844398, 85.7884352368781, 85.7884352368781, 85.4100804914688, 84.2469899778032, 83.70047756776755, 83.70047756776755, 82.98580749310554, 82.2150848635681, 83.22403085132622, 83.77054326136187, 83.77054326136187, 84.34508194883524, 84.38712136499183, 84.73744983296339, 85.01771260734066, 85.01771260734066, 84.21896370036546, 84.48521333602386, 85.53619873993857, 85.53619873993857, 85.59225129481402, 85.64830384968948, 85.97060604022332, 86.62922356000988, 88.14264254164705, 88.14264254164705, 88.88533889374679]",82.92885086476431,1.6229792000958696,None
reward-effort-pgACC-TUS,R88533/RE002,B_3,1,2024-08-06_14h13.19.467,2024-08-06 14:16:04,None,None,6,,,2.1777832031249997,1,44,approach,normal,reward,None,90,100,88,accept,0.9130254000192508,success,88,1945,"[1.4013138718862808, 1.3732875944485552, 1.3873007331674179, 1.3732875944485552, 1.3592744557296923, 1.4433532880428692, 1.4433532880428692, 1.891773727046479, 2.6765094953027964, 3.9937445348759004, 3.9937445348759004, 6.151767897580773, 9.83722338064169, 14.097217551175984, 23.079639469967045, 23.079639469967045, 31.165220510750885, 41.562969440147086, 51.554337346696265, 51.554337346696265, 58.785116925629474, 68.28602497701846, 73.17661038990157, 75.97923813367414, 75.97923813367414, 79.31436514876349, 83.81258267751845, 86.36297392435148, 86.36297392435148, 89.5579695522522, 91.2535593372346, 90.76309948207441, 89.23566736171836, 89.23566736171836, 89.61402210712765, 91.75803233111365, 93.32750386762629, 93.2153987578754, 93.2153987578754, 94.67276518463713, 95.23329073339164, 94.84092284926348, 94.02816080356943, 94.02816080356943, 93.34151700634517, 92.86507028990383, 92.97717539965473, 92.949149122217, 92.949149122217, 94.54664693616736, 95.30335642698596, 96.10210533396113, 96.10210533396113, 97.01295935068721, 97.15309073787584, 96.91486737965518, 96.91486737965518, 96.11611847268, 96.01802650164795, 96.55052577296475, 95.91993453061592, 95.91993453061592, 95.807829420865, 96.74670971502883, 97.04098562812494, 97.36328781865879, 97.36328781865879, 97.01295935068721, 96.36835496961953, 96.32631555346293, 96.32631555346293, 96.53651263424588, 96.38236810833838, 95.90592139189705, 95.86388197574045, 95.86388197574045, 95.8498688370216, 95.7377637272707, 95.42947467545572, 95.17723817851619, 95.17723817851619, 95.55559292392547, 95.86388197574045, 96.77473599246656, 96.77473599246656, 96.95690679581178, 96.3403286921818, 95.70973744983297, 96.32631555346293]",94.69265480088326,1.4937796000158414,None
reward-effort-pgACC-TUS,R88533/RE002,B_3,1,2024-08-06_14h13.19.467,2024-08-06 14:16:04,None,None,6,,,2.1777832031249997,1,45,approach,normal,reward,None,90,100,98,accept,1.228772500064224,success,98,2043,"[1.022959126476985, 1.0369722651958477, 0.9949328490392593, 0.9949328490392593, 0.9949328490392593, 0.9669065716015337, 0.9809197103203965, 0.9949328490392593, 0.9949328490392593, 1.3032219008542412, 1.8777605883276163, 3.19499562790072, 3.19499562790072, 5.058743077509473, 9.038474473666511, 15.330373758435911, 15.330373758435911, 25.125557722921016, 37.06475191139212, 46.46756799174907, 54.721306697159264, 54.721306697159264, 62.848927154099684, 69.44911549068408, 74.63397681666332, 74.63397681666332, 76.77798704064932, 77.43660456043587, 77.80094616712631, 77.80094616712631, 81.10804690477794, 83.50429362570347, 85.25593596556132, 86.3209345081949, 86.3209345081949, 85.59225129481402, 85.46613304634427, 86.86744691823054, 90.06244254613127, 90.06244254613127, 92.31855787986818, 94.16829219075807, 95.05111993004643, 95.7377637272707, 95.7377637272707, 97.01295935068721, 98.1480235869151, 99.17098271339209, 100.13788928499363, 100.13788928499363, 101.23091410506493, 102.92650389004731, 103.36091119033206, 103.36091119033206, 102.99656958364163, 102.80038564157756, 104.0195287101186, 103.54308199367728, 102.94051702876618, 102.94051702876618, 103.06663527723595, 103.75327907446024, 103.86538418421112, 103.86538418421112, 104.07558126499407, 104.2157126521827, 104.00551557139977, 103.69722651958477, 103.69722651958477, 103.72525279702249, 103.41696374520752, 103.37492432905093, 103.2768323580189, 103.2768323580189, 102.15578126050985, 102.12775498307214, 101.30097979865924, 100.79650680478018, 100.79650680478018, 100.6003228627161, 100.12387614627475, 98.97479877132801, 98.4142732225735, 98.4142732225735, 98.44229950001122, 98.37223380641692, 98.38624694513577, 98.38624694513577, 98.94677249389028, 99.18499585211094, 98.96078563260915, 98.6384834420753, 98.6384834420753, 98.45631263873008, 97.19513015403243, 96.81677540862313, 96.8728279634986, 96.8728279634986, 96.63460460527791]",99.84768170249333,1.649158800020814,None
reward-effort-pgACC-TUS,R88533/RE002,B_3,1,2024-08-06_14h13.19.467,2024-08-06 14:16:04,None,None,6,,,2.1777832031249997,1,46,approach,normal,reward,0.904,75,40,44,accept,1.7585238999454305,success,44,2087,"[0.9949328490392593, 0.9669065716015337, 0.9669065716015337, 0.9669065716015337, 0.9388802941638081, 0.9949328490392593, 0.9949328490392593, 0.9669065716015337, 1.1911167911033387, 3.0128248245555036, 7.987489069751801, 7.987489069751801, 14.265375215802337, 22.350956256586176, 31.627654088473356, 31.627654088473356, 39.75527454541378, 44.57579426470259, 50.25111544584203, 53.9926234837784, 53.9926234837784, 55.89841034954374, 58.37873590278245, 59.289589919508536, 60.999192843209805, 60.999192843209805, 62.07820452456224, 62.820900876661966, 64.96491110064797, 64.96491110064797, 68.28602497701846, 70.4160220622856, 70.96253447232127, 72.4899665926773, 72.4899665926773, 73.6950965224995, 74.12950382278424, 74.15753010022198, 74.15753010022198, 74.25562207125401, 74.4518060133181, 75.02634470079147, 75.58687024954598, 75.58687024954598, 75.13844981054237, 74.73206878769535, 74.60595053922559, 74.5218717069124, 74.5218717069124, 74.61996367794444, 74.85818703616512, 75.3906863074819, 76.24548776933253, 76.24548776933253, 78.03916952534698, 80.1411403331764, 82.15903230869263, 82.15903230869263, 83.65843815161097, 83.85462209367503, 83.74251698392415, 83.71449070648642, 83.71449070648642, 84.45718705858613, 86.34896078563263, 88.1286294029282, 88.1286294029282, 91.33763816954777, 92.08033452164752, 92.54276809936998, 92.0102688280532, 92.0102688280532, 89.43185130378244, 87.83435348983207, 87.09165713773234, 86.5451447276967, 86.5451447276967, 85.88652720791015, 85.05975202349724, 85.14383085581042, 85.26994910428019, 85.26994910428019, 84.41514764242956, 83.72850384520527, 83.35014909979598, 82.80363668976032, 82.80363668976032, 82.83166296719806, 82.48133449922649, 82.22909800228695, 82.22909800228695, 83.67245129032982, 84.77948924911999, 85.91455348534788, 85.92856662406673]",81.71581029211703,1.5806679000379518,None
reward-effort-pgACC-TUS,R88533/RE002,B_3,1,2024-08-06_14h13.19.467,2024-08-06 14:16:04,None,None,6,,,2.1777832031249997,1,47,approach,normal,reward,None,60,100,98,accept,1.2308241999708116,success,98,2185,"[0.8407883231317685, 0.8267751844129057, 0.8548014618506312, 0.8968408780072197, 0.8968408780072197, 0.8968408780072197, 0.8828277392883568, 0.8548014618506312, 0.8828277392883568, 0.8828277392883568, 0.8828277392883568, 0.8828277392883568, 1.0930248200712989, 1.3873007331674179, 1.3873007331674179, 1.7096029237012624, 2.1580233627048724, 3.5172978184345642, 3.5172978184345642, 5.24091388085469, 9.739131409609652, 15.988991278222464, 23.177731440999082, 23.177731440999082, 29.09127598035919, 35.18699132306451, 43.482769444631295, 43.482769444631295, 49.46637967758571, 52.80150669267506, 54.665254142283814, 56.164659985202135, 56.164659985202135, 57.74814466043363, 59.45774758413489, 60.45268043317415, 60.45268043317415, 60.92912714961549, 62.62471693459789, 64.13813591623507, 66.46431694356629, 68.73444541602207, 68.73444541602207, 70.44404833972334, 71.07463958207217, 70.97654761104012, 70.97654761104012, 71.3268760790117, 72.91036075424319, 73.27470236093362, 73.68108338378065, 73.68108338378065, 74.10147754534653, 74.4518060133181, 74.76009506513309, 74.32568776484834, 74.32568776484834, 72.81226878321114, 71.53707315979463, 71.3268760790117, 71.3268760790117, 71.53707315979463, 71.27082352413623, 70.9485213336024, 70.78036366897604, 70.78036366897604, 70.7523373915383, 70.66825855922514, 70.17779870406494, 69.16885271630682, 69.16885271630682, 68.48220891908254, 68.90260308064843, 70.20582498150266, 70.20582498150266, 70.33194322997242, 70.3459563686913, 70.24786439765926, 70.9064819174458, 70.9064819174458, 71.97148046007939, 72.20970381830004, 73.42884688684111, 74.22759579381629, 74.22759579381629, 74.56391112306899, 74.73206878769535, 74.73206878769535, 74.11549068406539, 74.11549068406539, 72.44792717652071, 71.67720454698326, 71.29884980157397, 71.29884980157397]",70.45714258409997,1.5762117999838665,None
reward-effort-pgACC-TUS,R88533/RE002,B_3,1,2024-08-06_14h13.19.467,2024-08-06 14:16:04,None,None,6,,,2.1777832031249997,1,48,approach,normal,reward,None,75,60,53,accept,1.0752348999958485,success,53,2238,"[0.8127620456940429, 0.8127620456940429, 0.8407883231317685, 0.8407883231317685, 0.8407883231317685, 0.79874890697518, 0.7847357682563172, 0.79874890697518, 0.79874890697518, 0.79874890697518, 0.8267751844129057, 0.8828277392883568, 0.8828277392883568, 1.3032219008542412, 2.3682204434878145, 5.058743077509473, 5.058743077509473, 8.491962063630861, 13.074258424699, 20.655366471603777, 20.655366471603777, 27.465751888971102, 33.74363803502164, 41.91329790811866, 45.12230667473824, 45.12230667473824, 50.33519427815521, 53.796439541714314, 56.65511984036233, 56.65511984036233, 58.54689356740881, 60.2845227685478, 62.05017824712451, 62.05017824712451, 62.876953431537416, 64.2782673034237, 64.95089796192912, 64.95089796192912, 65.24517387502523, 66.42227752740972, 67.69747315082623, 67.69747315082623, 68.44016950292595, 69.4771417681218, 70.50010089459879, 71.13069213694762, 71.13069213694762, 72.39187462164526, 73.52693885787315, 74.39575345844264, 75.36266003004418, 75.36266003004418, 76.67989506961729, 80.28127172036503, 82.03291406022288, 82.03291406022288, 81.85074325687765, 83.46225420954688, 84.31705567139751, 84.31705567139751, 84.54126589089933, 84.31705567139751, 84.97567319118406, 85.64830384968948, 85.64830384968948, 86.06869801125536, 85.9425797627856, 84.75146297168226, 83.46225420954688, 83.46225420954688, 82.34120311203785, 81.78067756328335, 80.4774556624291, 78.7818658774467, 78.7818658774467, 78.33344543844309, 79.0060760969485, 78.8939709871976, 78.8939709871976, 77.8429855832829, 77.32449945068497, 77.32449945068497, 77.32449945068497, 77.42259142171702, 77.40857828299815, 77.74489361225085, 78.59969507410149, 78.59969507410149, 81.17811259837224, 81.96284836662856, 81.62653303737586, 81.7246250084079, 81.7246250084079, 82.00488778278515, 82.00488778278515, 82.59343960897739, 82.59343960897739, 83.21001771260735, 83.08389946413759, 83.02784690926214, 83.02784690926214, 84.27501625524091, 84.49922647474273, 83.88264837111277, 83.5323199031412, 83.5323199031412, 83.29409654492052, 82.69153158000942]",81.10138492079682,1.7974666999652982,None
reward-effort-pgACC-TUS,R88533/RE002,B_3,1,2024-08-06_14h13.19.467,2024-08-06 14:16:04,None,None,6,,,2.1777832031249997,1,49,approach,normal,reward,None,80,80,75,accept,0.986124699935317,success,75,2313,"[0.7707226295374544, 0.7707226295374544, 0.7847357682563172, 0.79874890697518, 0.8548014618506312, 0.8267751844129057, 0.8267751844129057, 0.79874890697518, 0.868814600569494, 0.8548014618506312, 0.8548014618506312, 0.8548014618506312, 0.8407883231317685, 0.8407883231317685, 0.8407883231317685, 0.8407883231317685, 0.8127620456940429, 0.8968408780072197, 1.3732875944485552, 4.077823367189077, 4.077823367189077, 8.590054034662902, 14.615703683773908, 24.915360642138072, 24.915360642138072, 32.776731463420106, 40.72218111701532, 46.15927893993409, 46.15927893993409, 54.52512275509518, 59.177484809757644, 63.17122934463354, 63.17122934463354, 67.58536804107533, 69.4771417681218, 70.33194322997242, 70.33194322997242, 70.82240308513262, 71.46700746620031, 72.81226878321114, 73.33075491580907, 73.33075491580907, 73.7371359386561, 74.0734512679088, 74.7881213425708, 74.76009506513309, 74.76009506513309, 74.9422658684783, 75.11042353310465, 75.96522499495528, 76.96015784399454, 76.96015784399454, 79.9869958072689, 82.7756104123226, 85.12981771709156, 85.12981771709156, 87.27382794107757, 88.94139144862224, 92.05230824420978, 94.33644985538442, 94.33644985538442, 94.99506737517098, 94.46256810385418, 92.62684693168316, 92.43066298961908, 92.43066298961908, 92.54276809936998, 92.13638707652296, 91.16948050492142, 90.5809286787292, 90.5809286787292, 88.89935203246566, 87.18974910876439, 87.02159144413804, 86.71330239232306, 86.71330239232306, 86.29290823075718, 86.40501334050808, 86.46106589538353, 86.51711845025898, 86.51711845025898, 86.46106589538353, 85.9846191789422, 84.91962063630861, 84.91962063630861, 84.21896370036546, 84.06481917445798, 84.35909508755411, 85.24192282684245, 85.24192282684245, 85.69034326584607, 86.29290823075718, 86.89547319566827, 86.37698706307035, 86.23685567588171, 86.23685567588171, 86.0967242886931, 86.50310531154011, 87.93244546086412, 87.93244546086412, 88.3948790385866, 88.87132575502793, 89.68408780072197, 89.83823232662947, 89.83823232662947, 89.85224546534832, 89.02547028093541, 88.88533889374679, 88.88533889374679, 89.92231115894263, 91.95421627317775]",87.75946360094109,1.850574600044638,None
reward-effort-pgACC-TUS,R88533/RE002,B_3,1,2024-08-06_14h13.19.467,2024-08-06 14:16:04,None,None,6,,,2.1777832031249997,1,50,approach,normal,reward,0.806,80,100,102,accept,0.9643601999850944,success,102,2415,"[0.8968408780072197, 0.8968408780072197, 0.8968408780072197, 0.9248671554449454, 0.9248671554449454, 0.9528934328826708, 0.9669065716015337, 0.868814600569494, 0.868814600569494, 0.8968408780072197, 0.8968408780072197, 0.9108540167260825, 0.9108540167260825, 0.9528934328826708, 1.2051299298222014, 2.04591825295397, 3.657429205623193, 3.657429205623193, 7.903410237438624, 12.97616645366696, 19.324118293311813, 27.19950225331271, 27.19950225331271, 35.88764825900765, 43.45474316719356, 49.90078697787046, 49.90078697787046, 55.73025268491738, 59.78004977466874, 62.80688773794311, 67.41721037644896, 67.41721037644896, 70.73832425281945, 73.45687316427883, 75.33463375260645, 77.05824981502658, 77.05824981502658, 79.31436514876349, 81.03798121118362, 81.29021770812315, 82.08896661509833, 82.08896661509833, 82.08896661509833, 81.9908746440663, 83.58837245801665, 83.79856953879958, 83.92468778726936, 83.92468778726936, 83.756530122643, 83.28008340620167, 83.33613596107712, 83.30810968363939, 83.30810968363939, 83.72850384520527, 84.1769242842089, 83.93870092598821, 83.86863523239391, 83.86863523239391, 83.89666150983163, 83.72850384520527, 83.28008340620167, 83.86863523239391, 84.07883231317685, 84.07883231317685, 84.54126589089933, 85.2979753817179, 86.20882939844398, 86.20882939844398, 87.66619582520573, 90.03441626869353, 92.05230824420978, 92.3465841573059, 92.3465841573059, 92.16441335396068, 92.16441335396068, 93.07526737068676, 93.60776664200355, 92.55678123808885, 92.55678123808885, 92.59882065424543, 92.75296518015293, 93.06125423196791, 93.06125423196791, 93.34151700634517, 92.7249389027152, 92.16441335396068, 92.03829510549092, 92.03829510549092, 92.05230824420978, 91.80007174727025, 91.80007174727025, 91.82809802470798, 91.82809802470798, 91.68796663751935, 91.77204546983253]",87.1355649723848,1.6077120999107137,None
reward-effort-pgACC-TUS,R88533/RE002,B_3,1,2024-08-06_14h13.19.467,2024-08-06 14:16:04,None,None,6,,,2.1777832031249997,2,51,approach,shifted,reward,None,100,80,72,reject,1.891648399992846,None,0,2415,"null",None,None,None
reward-effort-pgACC-TUS,R88533/RE002,B_3,1,2024-08-06_14h13.19.467,2024-08-06 14:16:04,None,None,6,,,2.1777832031249997,2,52,approach,shifted,reward,None,60,100,98,accept,1.205181400058791,success,98,2513,"[0.9528934328826708, 0.9248671554449454, 0.9248671554449454, 0.8548014618506312, 0.8968408780072197, 0.8968408780072197, 0.8968408780072197, 0.8828277392883568, 0.8828277392883568, 0.868814600569494, 0.868814600569494, 0.8407883231317685, 0.8267751844129057, 0.8548014618506312, 0.8548014618506312, 0.8548014618506312, 0.9388802941638081, 1.59749781395036, 2.7605883276159733, 2.7605883276159733, 5.016703661352885, 8.98242191879106, 15.428465729467952, 15.428465729467952, 22.589179614806845, 29.259433644985545, 36.78448913701487, 45.92105558171342, 45.92105558171342, 52.96966435730142, 57.622026411963866, 61.25142934014933, 64.82477971345935, 67.87964395417144, 67.87964395417144, 69.0987870227125, 69.91154906840654, 71.22878410797965, 73.14858411246385, 73.14858411246385, 74.9422658684783, 75.47476513979508, 75.51680455595167, 75.33463375260645, 75.5027914172328, 75.7690410528912, 75.7690410528912, 76.25950090805141, 76.52575054370979, 76.91811842783794, 77.11430236990203, 76.91811842783794, 76.91811842783794, 76.94614470527567, 76.65186879217956, 76.4837111275532, 76.51173740499092, 76.51173740499092, 76.91811842783794, 77.04423667630772, 76.96015784399454, 76.7499607632116, 76.73594762449272, 76.73594762449272, 76.63785565346069, 75.82509360776665, 75.82509360776665, 75.69897535929688, 75.75502791417233, 75.74101477545348, 75.68496222057803, 75.68496222057803, 75.9231855787987, 76.11936952086276, 76.20344835317596, 76.42765857267774, 76.42765857267774, 76.38561915652117, 76.06331696598731, 75.96522499495528, 75.96522499495528, 75.95121185623641, 76.09134324342504, 76.30154032420798, 76.30154032420798, 76.65186879217956, 76.67989506961729, 77.03022353758885, 77.39456514427928, 77.39456514427928, 77.22640747965293, 76.79200017936819]",75.62130931927881,1.5825234000803903,None
reward-effort-pgACC-TUS,R88533/RE002,B_3,1,2024-08-06_14h13.19.467,2024-08-06 14:16:04,None,None,6,,,2.1777832031249997,2,53,approach,shifted,reward,None,85,60,55,accept,3.8277488999301568,success,55,2568,"[0.5184861325979239, 0.5324992713167866, 0.5044729938790611, 0.5044729938790611, 0.49045985516019824, 0.49045985516019824, 0.5184861325979239, 0.49045985516019824, 0.44842043900360984, 0.4764467164413354, 0.4764467164413354, 0.4624335777224727, 0.4764467164413354, 0.5044729938790611, 0.5044729938790611, 0.5465124100356494, 0.6165781036299636, 0.8267751844129057, 1.3452613170108296, 1.3452613170108296, 3.4051927086836624, 6.8664379722427755, 6.8664379722427755, 14.615703683773908, 22.6452321696823, 33.49140153808211, 42.97829645075223, 42.97829645075223, 51.41420595950764, 58.68702495459743, 63.38142642541648, 63.38142642541648, 69.40707607452748, 74.61996367794444, 77.10028923118317, 77.10028923118317, 81.38830967915518, 83.96672720342593, 85.87251406919128, 85.87251406919128, 86.3910002017892, 88.22672137396023, 89.13757539068632, 86.71330239232306, 86.71330239232306, 86.57317100513441, 88.70316809040158, 90.49684984641601, 90.49684984641601, 91.67395349880049, 92.22046590883613, 92.57079437680771, 92.57079437680771, 93.56572722584696, 95.07914620748414, 95.56960606264435, 95.59763234008207, 95.59763234008207, 95.69572431111412, 96.76072285374768, 97.67157687047376, 98.38624694513577, 98.38624694513577, 98.20407614179055, 99.22703526826754, 100.34808636577657, 100.34808636577657, 100.19394183986907, 100.83854622093675, 101.49716374072331, 102.66025425438895, 102.66025425438895, 103.26281921930003, 103.41696374520752, 103.59913454855274, 103.59913454855274, 103.08064841595481, 102.28189950897963, 102.11374184435327, 102.98255644492278, 102.98255644492278, 103.50104257752068, 102.12775498307214, 100.92262505324993, 100.50223089168406, 100.50223089168406, 100.3340732270577, 99.64742942983342, 99.52131118136366, 99.52131118136366, 99.67545570727115, 99.54933745880138, 98.59644402591871, 98.35822066769805, 98.35822066769805, 97.93782650613217, 97.7696688415058, 98.21808928050942, 98.21808928050942, 97.86776081253785, 97.545458622004, 97.74164256406809, 97.64355059303604, 97.64355059303604, 96.67664402143451, 96.20019730499317, 96.06006591780455, 96.06006591780455]",98.40387637771754,1.784167499979958,None
reward-effort-pgACC-TUS,R88533/RE002,B_3,1,2024-08-06_14h13.19.467,2024-08-06 14:16:04,None,None,6,,,2.1777832031249997,2,54,approach,shifted,reward,None,60,20,20,accept,1.4996515000239015,success,20,2588,"[0.6305912423488264, 0.6305912423488264, 0.6165781036299636, 0.6165781036299636, 0.6305912423488264, 0.6165781036299636, 0.5885518261922379, 0.5745386874733751, 0.5745386874733751, 0.5745386874733751, 0.6025649649111007, 0.5605255487545123, 0.5605255487545123, 0.6305912423488264, 0.6305912423488264, 0.7567094908185916, 0.7567094908185916, 1.821708033452165, 3.377166431245936, 6.319925562207127, 6.319925562207127, 11.602878859218405, 18.973789825340244, 27.802067218223808, 27.802067218223808, 39.026591332032915, 46.90197529203382, 55.94044976570033, 55.94044976570033, 61.55971839196431, 69.28095782605772, 72.92437389296205, 72.92437389296205, 75.04035783951034, 75.95121185623641, 76.04930382726846, 76.04930382726846, 76.06331696598731, 76.16140893701936, 76.1473957983005, 76.1473957983005, 76.11936952086276, 75.71298849801576, 75.37667316876305, 75.19450236541783, 75.19450236541783, 74.56391112306899, 74.19956951637856, 72.92437389296205, 72.92437389296205, 72.82628192193002, 72.91036075424319, 73.91930674200131, 73.91930674200131, 74.60595053922559, 74.59193740050672, 75.06838411694807, 75.06838411694807, 75.81108046904778, 76.60982937602296, 76.93213156655682, 77.39456514427928, 77.39456514427928, 79.59462792314075, 81.76666442456448, 82.13100603125491, 82.13100603125491, 83.13995201901304, 83.18199143516962, 83.19600457388849, 83.19600457388849, 83.1119257415753, 82.46732136050761, 81.304230846842, 81.304230846842, 79.60864106185961, 79.09015492926169, 79.23028631645032, 79.46850967467098, 79.46850967467098, 78.69778704513352, 78.58568193538262, 78.50160310306946, 78.37548485459969, 78.37548485459969, 78.38949799331854, 78.97804981951079, 78.97804981951079, 78.80989215488444, 78.1793009125356, 78.19331405125448, 78.19331405125448]",77.38145607902614,1.5257914999965578,None
reward-effort-pgACC-TUS,R88533/RE002,B_3,1,2024-08-06_14h13.19.467,2024-08-06 14:16:04,None,None,6,,,2.1777832031249997,2,55,approach,shifted,reward,None,55,40,36,accept,1.5652964999899268,success,36,2624,"[0.7006569359431404, 0.7006569359431404, 0.6866437972242776, 0.7006569359431404, 0.7006569359431404, 0.6586175197865519, 0.7006569359431404, 0.6866437972242776, 0.6866437972242776, 0.6305912423488264, 0.6305912423488264, 0.6586175197865519, 0.6586175197865519, 0.6305912423488264, 0.6726306585054148, 0.7006569359431404, 0.7006569359431404, 0.7567094908185916, 0.79874890697518, 1.737629201138988, 1.737629201138988, 3.363153292527074, 6.64222775274097, 13.452613170108297, 13.452613170108297, 20.96365552341876, 28.236474518508558, 37.80744826349186, 44.940135871393025, 44.940135871393025, 53.880518374027496, 57.832223492746806, 61.44761328221341, 61.44761328221341, 64.33431985829915, 68.14589358982983, 69.42108921324635, 69.42108921324635, 70.3039169525347, 71.36891549516828, 72.12562498598687, 72.22371695701891, 72.22371695701891, 71.7752965180153, 71.18674469182307, 70.51411403331764, 70.51411403331764, 70.1918118427838, 70.20582498150266, 70.24786439765926, 70.24786439765926, 70.71029797538174, 70.66825855922514, 70.73832425281945, 70.73832425281945, 71.22878410797965, 71.3268760790117, 71.45299432748146, 71.45299432748146, 72.57404542499049, 73.00845272527523, 74.32568776484834, 75.0123315620726, 75.0123315620726, 75.68496222057803, 76.30154032420798, 76.1473957983005, 76.1473957983005, 75.95121185623641, 75.51680455595167, 75.29259433644987, 75.29259433644987, 74.9002264523217, 74.81614762000854, 74.84417389744625, 74.84417389744625, 74.91423959104057, 74.88621331360285, 75.3906863074819, 75.3906863074819, 76.35759287908344, 76.52575054370979, 76.07733010470619, 76.09134324342504, 76.09134324342504, 76.11936952086276, 76.09134324342504, 76.09134324342504, 76.09134324342504, 76.37160601780229, 76.34357974036458, 75.95121185623641, 75.95121185623641, 75.67094908185916, 75.22252864285555, 75.18048922669897]",73.47179037646342,1.5869307999964803,None
reward-effort-pgACC-TUS,R88533/RE002,B_3,1,2024-08-06_14h13.19.467,2024-08-06 14:16:04,None,None,6,,,2.1777832031249997,2,56,approach,shifted,reward,None,90,100,98,accept,1.5450187000678852,success,98,2722,"[0.6866437972242776, 0.6866437972242776, 0.6165781036299636, 0.6446043810676891, 0.6446043810676891, 0.6446043810676891, 0.6446043810676891, 0.6305912423488264, 0.6305912423488264, 0.6305912423488264, 0.6866437972242776, 0.6726306585054148, 0.7006569359431404, 0.7006569359431404, 0.728683213380866, 0.7146700746620032, 1.6955897849823998, 1.6955897849823998, 4.3440730028474706, 12.21945696284837, 19.870630703347462, 29.09127598035919, 29.09127598035919, 42.754086231250426, 52.0307840631376, 59.38768189054058, 59.38768189054058, 69.44911549068408, 74.76009506513309, 78.79587901616557, 78.79587901616557, 84.1348848680523, 89.30573305531267, 92.234479047555, 92.8370440124661, 93.74789802919217, 93.74789802919217, 94.36447613282215, 94.3084235779467, 93.98612138741285, 93.98612138741285, 93.8179637227865, 93.87401627766194, 94.50460752001078, 95.2473038721105, 95.2473038721105, 95.75177686598957, 96.32631555346293, 96.24223672114977, 96.24223672114977, 96.32631555346293, 97.20914329275129, 97.79769511894352, 97.79769511894352, 99.9557184816484, 102.12775498307214, 104.1736732360261, 105.43485572072375, 105.43485572072375, 106.99031411851753, 106.89222214748551, 107.00432725723638, 107.00432725723638, 108.55978565503017, 109.5687316427883, 110.89997982108027, 112.35734624784199, 112.35734624784199, 113.26820026456808, 113.07201632250398, 112.18918858321562, 109.87702069460327, 109.87702069460327, 109.1203112037847, 108.84004842940742, 109.31649514584876, 109.37254770072423, 109.37254770072423, 110.03116522051077, 109.70886302997691, 109.44261339431853, 109.24642945225445, 109.24642945225445, 108.88208784556402, 108.08333893858884, 107.9852469675568, 107.9852469675568, 107.9852469675568, 106.63998565054595, 106.44380170848189, 106.58393309567052, 106.79413017645345, 106.79413017645345, 106.80814331517232, 106.42978856976302]",103.9593411307032,1.594659399939701,None
reward-effort-pgACC-TUS,R88533/RE002,B_3,1,2024-08-06_14h13.19.467,2024-08-06 14:16:04,None,None,6,,,2.1777832031249997,2,57,approach,shifted,reward,None,75,80,72,accept,1.49421999999322,success,72,2794,"[0.7707226295374544, 0.79874890697518, 0.7707226295374544, 0.7707226295374544, 0.79874890697518, 0.728683213380866, 0.7567094908185916, 0.7567094908185916, 0.728683213380866, 0.7567094908185916, 0.7567094908185916, 0.7146700746620032, 0.7146700746620032, 0.7707226295374544, 0.8127620456940429, 0.8828277392883568, 0.8828277392883568, 1.5134189816371832, 2.5503912468330308, 4.5122306674738235, 4.5122306674738235, 9.570973744983299, 13.81695477679873, 19.492275957938165, 25.391807358579406, 25.391807358579406, 32.566534382637165, 36.89659424676577, 42.62796798278066, 42.62796798278066, 48.96190668370665, 53.22190085424094, 57.4959081634941, 57.4959081634941, 60.25649649111007, 62.06419138584337, 64.06807022264076, 65.83372570121747, 65.83372570121747, 66.78661913410015, 67.40319723773011, 69.3650366583709, 69.3650366583709, 70.27589067509697, 70.48608775587992, 72.51799287011504, 74.50785856819356, 74.50785856819356, 75.68496222057803, 77.71686733481313, 81.44436223403063, 81.44436223403063, 83.1119257415753, 85.76040895944038, 86.44705275666466, 87.03560458285689, 87.03560458285689, 86.92349947310599, 86.58718414385329, 86.48909217282124, 86.48909217282124, 86.4750790341024, 86.62922356000988, 86.5451447276967, 85.50817246250085, 85.50817246250085, 85.15784399452929, 84.63935786193136, 84.26100311652206, 83.88264837111277, 83.88264837111277, 83.756530122643, 83.77054326136187, 84.0227797583014, 84.80751552655771, 84.80751552655771, 85.39606735274995, 85.38205421403109, 85.46613304634427, 85.46613304634427, 86.26488195331945, 87.31586735723415, 87.31586735723415, 87.31586735723415, 88.18468195780365, 88.21270823524138, 88.08658998677161, 87.69422210264345, 87.69422210264345, 87.91843232214525, 88.40889217730546, 87.84836662855095, 87.84836662855095, 87.56810385417369, 88.38086589986773, 88.63310239680726, 86.83942064079282, 86.83942064079282, 86.51711845025898, 86.46106589538353, 86.62922356000988, 86.62922356000988, 86.88146005694941, 87.07764399901349, 88.17066881908478, 89.5579695522522, 89.5579695522522, 91.23954619851574, 91.65994036008162, 91.33763816954777, 91.05737539517052, 91.05737539517052]",86.7151105392545,1.865555000025779,None
reward-effort-pgACC-TUS,R88533/RE002,B_3,1,2024-08-06_14h13.19.467,2024-08-06 14:16:04,None,None,6,,,2.1777832031249997,2,58,approach,shifted,reward,None,80,40,38,reject,1.4948283000849187,None,0,2794,"null",None,None,None
reward-effort-pgACC-TUS,R88533/RE002,B_3,1,2024-08-06_14h13.19.467,2024-08-06 14:16:04,None,None,6,,,2.1777832031249997,2,59,approach,shifted,reward,0.598,75,20,19,reject,1.1954480999847874,None,0,2794,"null",None,None,None
reward-effort-pgACC-TUS,R88533/RE002,B_3,1,2024-08-06_14h13.19.467,2024-08-06 14:16:04,None,None,6,,,2.1777832031249997,2,60,approach,shifted,reward,None,60,80,66,accept,1.135047399904579,success,66,2860,"[0.5465124100356494, 0.5465124100356494, 0.5605255487545123, 0.5605255487545123, 0.5324992713167866, 0.5184861325979239, 0.5324992713167866, 0.5324992713167866, 0.5184861325979239, 0.5184861325979239, 0.5184861325979239, 0.5184861325979239, 0.5465124100356494, 0.6025649649111007, 0.6305912423488264, 0.6165781036299636, 0.6165781036299636, 0.6305912423488264, 0.6726306585054148, 0.7707226295374544, 0.7707226295374544, 1.1350642362278875, 2.0178919755162443, 4.736440886975629, 4.736440886975629, 8.646106589538352, 15.750767920001795, 23.219770857155673, 29.469630725768486, 29.469630725768486, 35.31310957153428, 42.82415192484474, 45.90704244299456, 45.90704244299456, 51.498284791820815, 53.067756328333445, 55.295845384632635, 55.295845384632635, 58.51886728997109, 61.65781036299636, 66.46431694356629, 69.79944395865564, 69.79944395865564, 73.65305710634291, 75.09641039438579, 76.21746149189481, 76.21746149189481, 77.15634178605862, 78.26337974484878, 80.82778413040067, 83.79856953879958, 83.79856953879958, 85.59225129481402, 86.50310531154011, 86.78336808591737, 86.78336808591737, 86.06869801125536, 85.17185713324814, 84.48521333602386, 84.48521333602386, 85.04573888477837, 85.43810676890654, 84.77948924911999, 85.12981771709156, 85.12981771709156, 85.00369946862179, 84.23297683908434, 84.03679289702025, 84.03679289702025, 84.1348848680523, 84.41514764242956, 84.90560749758976, 85.24192282684245, 85.24192282684245, 84.76547611040112, 84.5132396134616, 84.56929216833704, 84.56929216833704, 84.56929216833704, 84.47120019730501, 83.54633304186005, 82.7756104123226, 82.7756104123226, 83.02784690926214, 82.81764982847919, 82.48133449922649, 82.48133449922649, 82.34120311203785, 81.61251989865698, 80.75771843680636, 79.31436514876349, 79.31436514876349, 78.2213403286922, 77.45061769915473, 77.07226295374544, 76.98818412143227, 76.84805273424364, 76.84805273424364, 76.90410528911909, 77.04423667630772, 76.8200264568059, 76.8200264568059, 76.46969798883434]",81.53974198466547,1.7049769998993725,None
