expName,curec_ID,trial_schedule,session_nr,date,start_time,end_time,duration,participant,age,gender,max_strength,block_number,trial_count,block_action_type,block_global_effort_state,block_attention_focus,trial_rating,trial_rating_time,trial_rating_random_start_pos,trial_effort,trial_outcome_level,trial_actual_outcome,response,response_time,result,points,cumulative_points,effort_trace,effort_expended,effort_response_time,final_bonus_payment
reward-effort-pgACC-TUS,R88533/RE002,B_5,1,2024-08-15_16h50.58.062,2024-08-15 16:51:25,None,None,7,,,2.658517456054687,1,1,avoid,normal,heart,None,None,None,80,-40,-40,accept,41.10871920012869,success,0,0,"[0.9298129009818137, 1.1479171617059427, 1.1479171617059427, 1.6185631980053794, 1.6185631980053794, 2.2728759801777665, 2.984584620435451, 3.8225641484807893, 3.8225641484807893, 4.534272788738474, 5.349293973549694, 6.221711016446211, 6.221711016446211, 7.518857409173925, 8.965233032923413, 9.82617090420287, 9.82617090420287, 11.203671498250003, 13.224005702852462, 16.759590560906766, 20.157425359556356, 20.157425359556356, 23.48638512850359, 28.307637207668552, 33.438826920494115, 33.438826920494115, 37.98457888084965, 42.484414154736946, 42.484414154736946, 46.22662410189832, 49.417833811440836, 53.61921062328459, 53.61921062328459, 57.33846222721184, 60.242692646327875, 62.36633939548387, 62.36633939548387, 66.13150768587937, 69.16200899278306, 71.65298923368495, 71.65298923368495, 74.22432367590626, 76.11838699272107, 77.3581375273635, 77.3581375273635, 77.63363764617291, 78.5404922039206, 79.33255504549771, 79.33255504549771, 80.19349291677716, 81.78909777154843, 83.48801517087323, 83.48801517087323, 83.92422369232148, 83.55689020057557, 83.39618179793675, 83.39618179793675, 83.5224526857244, 83.90126534908737, 84.59001564611093, 84.59001564611093, 85.57722440517803, 86.32337056028689, 86.73662073850103, 86.73662073850103, 86.56443316424514, 86.52999564939397, 86.88584996952281, 86.88584996952281, 86.78253742496928, 86.5759123358622, 87.35649600582225, 87.35649600582225, 87.62051695301462, 87.29910014773695, 86.78253742496928, 86.78253742496928, 86.7480999101181, 85.97899541177512, 85.97899541177512, 85.39355765930509, 85.38207848768803, 85.02622416755918, 84.55557813125975, 84.55557813125975, 84.05049458010913, 83.7749944612997, 83.55689020057557, 83.55689020057557, 83.23547339529792, 82.85666073193495, 82.85666073193495, 82.35157718078435, 82.51228558342318, 82.83370238870084, 82.83370238870084, 82.0760770619749, 80.97407658673721, 80.96259741512014, 80.96259741512014, 81.27253504878075, 81.15774333261015, 81.11182664614192, 81.11182664614192]",83.5802188396683,1.7206314001232386,None
reward-effort-pgACC-TUS,R88533/RE002,B_5,1,2024-08-15_16h50.58.062,2024-08-15 16:51:25,None,None,7,,,2.658517456054687,1,2,avoid,normal,heart,None,None,None,90,-80,-81,accept,50.185739499982446,success,0,0,"[0.6083960957041497, 0.6543127821723874, 0.9298129009818137, 0.9298129009818137, 1.2167921914082993, 1.5726465115371415, 1.9629383465171624, 1.9629383465171624, 2.582813613838371, 3.0190221352866295, 3.3174805973301744, 3.3174805973301744, 3.455230656734888, 3.834043320097849, 5.6018357491250015, 5.6018357491250015, 8.276482735899847, 10.905213036206456, 14.877006415709019, 14.877006415709019, 20.8232173133458, 25.47228181825487, 29.731054488183915, 29.731054488183915, 34.65561911190241, 38.030495567317885, 42.43849746826871, 44.88356102270236, 44.88356102270236, 47.3630620919872, 49.762208959952616, 54.12429417443521, 54.12429417443521, 56.75302447474181, 60.196775959859636, 61.964568388886796, 61.964568388886796, 66.47588283439116, 70.0229468640625, 73.32894828977562, 73.32894828977562, 75.6592201280387, 77.10559575178819, 78.00097113791881, 79.43586759005125, 79.43586759005125, 80.33124297618188, 81.28401422039782, 83.33878593985145, 83.33878593985145, 84.5096614447915, 85.33616180121979, 85.74941197943393, 85.74941197943393, 86.19709967249925, 87.78122535565345, 88.82582997280586, 88.82582997280586, 89.44570524012705, 89.0668925767641, 89.58345529953178, 89.58345529953178, 91.24793518400539, 91.5004769595807, 90.29516393978946, 90.29516393978946, 90.66249743153536, 91.51195613119776, 92.24662311468957, 92.31549814439191, 92.31549814439191, 92.20070642822132, 92.30401897277486, 92.90093589686195, 92.90093589686195, 93.13051932920314, 93.55524867903434, 94.17512394635554, 94.17512394635554, 94.57689495295263, 94.42766572193085, 94.01441554371671, 94.01441554371671, 93.73891542490729, 94.01441554371671, 94.01441554371671, 94.01441554371671, 93.68151956682199, 93.09608181435196, 92.87797755362783, 92.87797755362783, 92.02851885396544, 91.66118536221953, 91.79893542162425, 91.79893542162425, 91.82189376485836, 91.8678104513266, 91.73006039192188, 91.73006039192188, 91.6726645338366, 91.45456027311246, 91.47751861634659, 91.47751861634659, 91.63822701898542, 91.71858122030483, 91.79893542162425, 91.79893542162425, 91.97112299588014, 91.89076879456071, 91.83337293647543, 91.83337293647543, 92.10887305528485, 92.69431080775487]",91.6999510893198,1.8828129000030458,None
reward-effort-pgACC-TUS,R88533/RE002,B_5,1,2024-08-15_16h50.58.062,2024-08-15 16:51:25,None,None,7,,,2.658517456054687,1,3,avoid,normal,heart,None,None,None,95,-40,-36,accept,59.53039430011995,success,0,0,"[0.6657919537894469, 0.6657919537894469, 0.6543127821723874, 0.6083960957041497, 0.6657919537894469, 0.6657919537894469, 0.9527712442159325, 1.7333549141759736, 2.984584620435451, 2.984584620435451, 3.6159390593737197, 4.580189475206712, 4.580189475206712, 6.083960957041497, 9.367004039520493, 11.605442504847082, 11.605442504847082, 17.10396570941855, 22.395863824882944, 28.399470580605023, 28.399470580605023, 34.44899402279534, 39.72941296664268, 44.14889403921056, 44.14889403921056, 46.9957286002413, 49.8540423328891, 52.82714778170748, 52.82714778170748, 56.33977429652768, 58.94554625360017, 61.379130636416754, 61.379130636416754, 64.57034034595928, 68.40438366605713, 71.43488497296082, 71.43488497296082, 74.79828225675924, 77.41553338544878, 78.74711729302769, 78.74711729302769, 81.32993090686604, 84.34895304215267, 86.17414132926513, 86.17414132926513, 87.71235032595109, 88.86026748765703, 91.01835175166421, 91.01835175166421, 92.00556051073133, 92.80910252392547, 92.99276926979843, 92.99276926979843, 93.00424844141548, 93.30270690345903, 93.30270690345903, 93.94554051401435, 94.58837412456968, 94.76056169882557, 94.76056169882557, 94.48506158001615, 94.12920725988731, 94.00293637209965, 94.00293637209965, 94.17512394635554, 94.02589471533378, 94.02589471533378, 94.02589471533378, 94.56541578133557, 95.17381187703971, 95.50670785393443, 95.50670785393443, 95.31156193644443, 94.62281163942087, 95.28860359321031, 95.28860359321031, 96.29877069551154, 96.47095826976744, 97.19414608164217, 97.19414608164217, 97.8140213489634, 97.12527105193982, 97.46964620045159, 97.46964620045159, 98.34206324334812, 98.90454265258404, 99.31779283079817, 99.31779283079817, 99.7080846657782, 99.98358478458762, 100.60346005190883, 100.60346005190883, 101.12002277467651, 101.55623129612476, 101.6595438406783, 101.6595438406783, 101.63658549744416, 101.67102301229536, 101.67102301229536, 101.67102301229536, 101.67102301229536, 101.6251063258271, 101.54475212450771, 101.54475212450771, 101.54475212450771, 101.76285638523184, 101.64806466906124, 101.21185614761296]",97.10908730179118,1.7997413999401033,None
reward-effort-pgACC-TUS,R88533/RE002,B_5,1,2024-08-15_16h50.58.062,2024-08-15 16:51:25,None,None,7,,,2.658517456054687,1,4,avoid,normal,heart,None,None,None,95,-20,-16,reject,68.98036390007474,None,-16,-16,"null",None,None,None
reward-effort-pgACC-TUS,R88533/RE002,B_5,1,2024-08-15_16h50.58.062,2024-08-15 16:51:25,None,None,7,,,2.658517456054687,1,5,avoid,normal,heart,0.6,5.312971800100058,9,85,-40,-41,accept,76.27004530001432,success,0,-16,"[0.5510002376188525, 0.5510002376188525, 0.5395210660017931, 0.5280418943847337, 0.5280418943847337, 0.5395210660017931, 0.6657919537894469, 1.1823546765571211, 1.1823546765571211, 1.825188287112449, 2.789438702945441, 4.832731250782019, 4.832731250782019, 8.104295161643957, 11.593963333230024, 16.63331967311911, 16.63331967311911, 22.92390571926768, 27.91734537268853, 34.87372337262654, 34.87372337262654, 40.53295497983684, 45.262373686065324, 49.016062804843756, 49.016062804843756, 54.11281500281815, 57.958337494533055, 57.958337494533055, 60.3230468476473, 62.11379761990856, 65.33944484430226, 65.33944484430226, 68.59952958354715, 73.57001089373387, 76.46276214123286, 76.46276214123286, 78.55197137553766, 81.63986854052665, 84.10789043819443, 84.10789043819443, 85.08362002564448, 86.66774570879868, 88.11412133254817, 88.11412133254817, 89.52605944144648, 89.88191376157533, 88.44701730944288, 88.44701730944288, 87.55164192331226, 86.66774570879868, 87.37945434905636, 87.37945434905636, 88.88322583089115, 89.69824701570236, 91.33976855694186, 91.33976855694186, 92.08591471205074, 92.44176903217958, 92.99276926979843, 92.99276926979843, 93.08460264273491, 93.01572761303255, 93.01572761303255, 92.91241506847902, 93.26826938860785, 94.08329057341908, 94.08329057341908, 93.85370714107788, 93.5667278506514, 93.47489447771493, 93.42897779124668, 93.42897779124668, 92.26958145792368, 91.43160192987835, 91.20201849753715, 91.20201849753715, 91.24793518400539, 91.22497684077128, 90.92651837872772, 90.92651837872772, 90.92651837872772, 90.71989328962066, 91.1331434678348, 91.1331434678348, 91.30533104209069, 90.52474737213065, 90.52474737213065, 88.9521008605935, 88.16003801901641, 87.2876209761199, 87.2876209761199, 85.54278689032687, 82.14495209167727, 77.40405421383171, 77.40405421383171, 74.00621941518213, 72.628718821135, 73.13380237228561, 73.13380237228561, 74.48834462309863, 76.66938723033992, 77.39257504221466, 77.39257504221466, 76.54311634255227, 73.92586521386272, 73.8455110125433, 73.8455110125433, 75.75105350097516, 77.67955433264116, 78.83895066596415, 78.83895066596415, 84.24564049759914, 87.60903778139756, 91.45456027311246, 91.45456027311246, 93.38306110477845, 94.58837412456968, 97.20562525325923, 97.20562525325923, 99.67364715092701, 100.82156431263296, 100.90191851395238, 100.90191851395238, 100.75268928293059, 100.83304348425001, 101.21185614761296, 101.21185614761296, 100.69529342484532, 100.39683496280176, 100.35091827633352, 100.35091827633352, 100.67233508161118, 100.28204324663118, 99.81139721033173, 99.81139721033173, 99.73104300901231, 99.63920963607583, 97.55000040177102, 97.55000040177102, 95.89699968891446, 95.5181870255515, 95.5181870255515, 95.1508535338056, 94.70316584074028, 94.33583234899437, 94.33583234899437, 94.30139483414321, 94.80647838529381, 95.2082493918909, 95.2082493918909, 94.70316584074028, 95.12789519057148, 95.91995803214857, 95.91995803214857, 95.80516631597798, 94.7835200420597, 94.4391448935479, 94.4391448935479, 93.85370714107788, 93.26826938860785, 92.68283163613782, 92.68283163613782, 92.05147719719955, 91.84485210809248, 91.56935198928305, 91.56935198928305, 91.44308110149541, 91.73006039192188, 92.37289400247721, 92.37289400247721, 92.65987329290371, 92.38437317409428]",95.71973116984447,2.8643922999035567,None
reward-effort-pgACC-TUS,R88533/RE002,B_5,1,2024-08-15_16h50.58.062,2024-08-15 16:51:25,None,None,7,,,2.658517456054687,1,6,avoid,normal,heart,None,None,None,60,-20,-22,accept,93.94019280001521,success,0,-16,"[0.3673334917459017, 0.3673334917459017, 0.3673334917459017, 0.41325017821413945, 0.5050835511506149, 0.5050835511506149, 0.8494586996623976, 1.3430630791959532, 2.468021897667777, 2.468021897667777, 3.2830430824789967, 4.8097729075479005, 8.494586996623976, 8.494586996623976, 11.318463214420596, 18.251882871124494, 24.11773956744186, 24.11773956744186, 31.487367745594014, 39.12101687093853, 43.63233131644289, 43.63233131644289, 48.14364576194724, 51.53000138897978, 56.259420095208256, 56.259420095208256, 59.02590045491958, 61.28729726348029, 62.82550626016625, 62.82550626016625, 66.67102875188115, 68.14036271886476, 69.29975905218777, 69.29975905218777, 69.77040508848721, 69.81632177495544, 69.81632177495544, 69.38011325350718, 68.3584669795889, 67.73859171226768, 67.73859171226768, 67.41717490699001, 67.38273739213885, 66.96948721392471, 66.96948721392471, 66.69398709511528, 66.22334105881585, 65.95932011162347, 65.95932011162347, 65.93636176838935, 65.47719490370699, 65.45423656047285, 65.45423656047285, 66.36109111822054, 67.22202898950002, 67.63527916771415, 67.63527916771415, 67.3942165637559, 67.4516124218412, 67.77302922711887, 67.77302922711887, 68.12888354724771, 68.07148768916241, 68.18627940533301, 68.18627940533301, 68.56509206869596, 68.76023798618598, 69.08165479146365, 69.08165479146365, 68.9783422469101, 68.70284212810067, 68.33550863635477, 68.33550863635477, 67.9337376297577, 67.00392472877587, 67.00392472877587, 66.05115348455995, 65.52311159017522, 65.12134058357813, 65.12134058357813, 64.42111111493752, 63.91602756378689, 63.67496495982865, 63.67496495982865, 63.97342342187219, 64.68513206212988, 64.79992377830047]",66.76154484282881,1.4310568999499083,None
reward-effort-pgACC-TUS,R88533/RE002,B_5,1,2024-08-15_16h50.58.062,2024-08-15 16:51:25,None,None,7,,,2.658517456054687,1,7,avoid,normal,heart,None,None,None,80,-60,-59,accept,103.15015250002034,success,0,-16,"[0.3673334917459017, 0.35585432012884227, 0.35585432012884227, 0.3788126633629611, 0.4247293498311988, 0.4247293498311988, 0.9298129009818137, 1.5152506534518444, 2.376188524731302, 2.376188524731302, 2.766480359711322, 3.271563910861937, 4.373564386099642, 4.373564386099642, 6.129877643509735, 9.573629128627562, 12.45490120450948, 17.092486537801488, 17.092486537801488, 22.67136394369237, 27.29747010536732, 33.65693118121824, 33.65693118121824, 36.641515801653696, 42.05968480490574, 44.573623389041764, 44.573623389041764, 48.063291560627825, 50.416521742125006, 53.860273227242836, 53.860273227242836, 57.20071216780713, 60.18529678824258, 62.148235134759744, 62.148235134759744, 64.89175715123694, 67.23350816111707, 69.01277976176128, 69.01277976176128, 69.77040508848721, 70.29844698287194, 71.32009325679023, 71.32009325679023, 72.89273976832736, 73.99474024356508, 74.4653862798645, 74.79828225675924, 74.79828225675924, 75.95767859008224, 76.80713728974463, 77.46145007191701, 77.46145007191701, 78.13872119732352, 78.59788806200591, 79.17184664285888, 79.17184664285888, 79.69988853724361, 79.71136770886066, 79.43586759005125, 79.43586759005125, 78.98817989698593, 79.27515918741241, 79.35551338873182, 79.35551338873182, 79.22924250094418, 80.87076404218368, 81.55951433920724, 81.55951433920724, 82.00720203227256, 82.06459789035785, 82.50080641180611, 82.50080641180611, 84.29155718406737, 85.06066168241037, 85.61166192002922, 85.61166192002922, 86.00195375500923, 86.51851647777691, 86.36928724675514, 86.36928724675514, 85.73793280781686, 84.98030748109095, 84.88847410815447, 84.88847410815447, 85.00326582432507, 84.98030748109095, 84.83107825006917, 84.83107825006917, 85.01474499594212, 84.88847410815447, 84.84255742168624, 84.84255742168624, 84.64741150419623, 84.70480736228151, 84.52114061640856, 84.52114061640856, 83.25843173853204, 81.61691019729254, 81.36436842171723, 81.36436842171723, 81.49063930950487, 81.73170191346313, 82.06459789035785, 82.06459789035785, 82.34009800916728, 82.89109824678613, 83.54541102895851, 83.54541102895851, 84.17676546789679, 84.09641126657736, 84.09641126657736]",82.54783398585016,1.8540680999867618,None
reward-effort-pgACC-TUS,R88533/RE002,B_5,1,2024-08-15_16h50.58.062,2024-08-15 16:51:25,None,None,7,,,2.658517456054687,1,8,avoid,normal,heart,None,None,None,55,-20,-20,accept,112.3616500000935,success,0,-16,"[0.6657919537894469, 0.642833610555328, 0.642833610555328, 0.7002294686406252, 0.7346669834918034, 0.7231878118747439, 0.7231878118747439, 0.7691044983429817, 0.7576253267259222, 1.2282713630253588, 1.2282713630253588, 2.5024594125189554, 4.029189237587859, 5.900294211168546, 5.900294211168546, 9.21777480849872, 12.776318009787143, 17.941945237463884, 17.941945237463884, 23.119051636757685, 27.30894927698438, 32.830430824789964, 32.830430824789964, 35.04591094688244, 39.10953769932147, 41.93341391711809, 41.93341391711809, 44.28664409861528, 46.65135345172951, 49.4867088411432, 49.4867088411432, 52.08100162659862, 56.01835749125, 59.06033796977076, 59.06033796977076, 60.73629702586143, 61.861255844333265, 62.53852696973976, 62.53852696973976, 65.10986141196108, 66.46440366277409, 66.46440366277409, 66.98096638554176, 66.7743412964347, 66.1774243723476, 66.1774243723476, 65.61494496311168, 65.46571573208992, 64.77696543506634, 64.77696543506634, 62.87142294663449, 62.55000614135683, 62.51556862650565, 62.51556862650565, 62.504089454888586, 62.28598519416446, 62.28598519416446, 62.28598519416446, 62.33190188063269, 62.34338105224976, 62.13675596314269, 62.13675596314269, 61.70054744169443, 61.19546389054381, 61.19546389054381, 61.08067217437322, 61.046234659522035, 61.18398471892675, 61.19546389054381, 61.19546389054381, 61.24138057701205, 61.19546389054381, 61.16102637569263, 61.402088979650884, 61.402088979650884, 61.82681832948208, 61.90717253080149, 61.91865170241856, 61.91865170241856, 62.17119347799386, 62.389297738718, 62.389297738718, 62.48113111165446, 62.699235372378595, 62.82550626016625, 62.82550626016625, 62.85994377501743, 62.87142294663449, 62.77958957369801, 62.77958957369801, 62.55000614135683, 62.435214425186224, 61.99900590373797]",62.54398428083639,1.542450100183487,None
reward-effort-pgACC-TUS,R88533/RE002,B_5,1,2024-08-15_16h50.58.062,2024-08-15 16:51:25,None,None,7,,,2.658517456054687,1,9,avoid,normal,heart,None,None,None,75,-20,-20,reject,120.79035859997384,None,-20,-36,"null",None,None,None
reward-effort-pgACC-TUS,R88533/RE002,B_5,1,2024-08-15_16h50.58.062,2024-08-15 16:51:25,None,None,7,,,2.658517456054687,1,10,avoid,normal,heart,None,None,None,75,-80,-89,accept,127.51182120013982,success,0,-36,"[0.39029183498002057, 0.30993763366060456, 0.30993763366060456, 0.33289597689472344, 0.2869792904264857, 0.2869792904264857, 0.2869792904264857, 0.34437514851178286, 0.3673334917459017, 0.3673334917459017, 0.3673334917459017, 0.3788126633629611, 0.29845846204354515, 0.29845846204354515, 0.29845846204354515, 0.2869792904264857, 0.30993763366060456, 0.30993763366060456, 0.27550011880942626, 0.3673334917459017, 0.3788126633629611, 0.3788126633629611, 0.5510002376188525, 2.0203342046024595, 3.237126396010759, 3.237126396010759, 5.326335630315575, 7.966545102239244, 10.182025224331714, 10.182025224331714, 12.707442980084787, 16.85142393384324, 20.31813376219519, 20.31813376219519, 24.09478122420774, 27.49261602285733, 32.830430824789964, 32.830430824789964, 35.19514017790421, 38.24859982804201, 41.86453888741573, 43.70120634614524, 43.70120634614524, 45.89372812500359, 47.79927061343546, 47.79927061343546, 49.88847984774027, 51.92029322395979, 54.65233606881994, 54.65233606881994, 57.38437891368008, 60.036067557220804, 61.95308921726973, 65.00654886740755, 65.00654886740755, 67.61232082448004, 70.2525302964037, 72.83534391024207, 72.83534391024207, 73.92586521386272, 74.6375738541204, 74.62609468250334, 74.62609468250334, 74.04065693003331, 74.05213610165036, 74.5801779960351, 74.5801779960351, 75.47555338216574, 76.25613705212578, 76.43980379799874, 76.66938723033992, 76.66938723033992, 76.74974143165933, 76.77269977489345, 76.88749149106405, 76.88749149106405, 77.25482498280995, 77.70251267587527, 78.8274714943471, 78.8274714943471, 79.68840936562654, 80.02130534252127, 79.99834699928715, 79.99834699928715, 79.5621384778389, 78.50605468906943, 78.08132533923823, 78.08132533923823, 77.96653362306763, 78.41422131613295, 78.59788806200591, 78.70120060655944, 78.70120060655944, 78.86190900919827, 79.71136770886066, 80.58378475175718, 80.58378475175718, 80.71005563954485, 80.67561812469366, 80.87076404218368, 80.87076404218368, 80.26236794647951, 79.91799279796774, 79.80320108179714, 79.80320108179714, 80.43455552073542, 81.04295161643957, 81.1462641609931, 81.1462641609931, 81.23809753392958, 81.72022274184607, 81.18070167584428, 81.18070167584428, 80.15905540192598, 79.96390948443597, 80.1246178870748, 80.1246178870748, 80.25088877486246, 80.71005563954485]",78.41218468891057,1.9828488999046385,None
reward-effort-pgACC-TUS,R88533/RE002,B_5,1,2024-08-15_16h50.58.062,2024-08-15 16:51:25,None,None,7,,,2.658517456054687,1,11,avoid,normal,heart,None,None,None,95,-60,-53,accept,137.02459030016325,success,0,-36,"[0.33289597689472344, 0.34437514851178286, 0.40177100659708, 0.40177100659708, 0.39029183498002057, 0.41325017821413945, 0.40177100659708, 0.40177100659708, 0.40177100659708, 0.35585432012884227, 0.3673334917459017, 0.3673334917459017, 0.35585432012884227, 0.35585432012884227, 0.482125207916496, 0.482125207916496, 0.7231878118747439, 1.4004589372812504, 2.709084501626025, 2.709084501626025, 4.258772669929048, 7.886190900919828, 9.963920963607583, 9.963920963607583, 12.799276353021263, 18.538862161550977, 22.797634831480025, 27.343386791835556, 27.343386791835556, 33.886514613559434, 39.327641960045604, 39.327641960045604, 43.425706227335816, 46.84649936921952, 50.565750973146784, 50.565750973146784, 54.07837748796697, 57.06296210840242, 59.450629804750776, 61.02327631628792, 61.02327631628792, 62.28598519416446, 65.83304922383581, 69.42602993997542, 69.42602993997542, 73.05344817096619, 76.106907821104, 78.70120060655944, 78.70120060655944, 81.1692225042272, 83.55689020057557, 85.32468262960273, 85.32468262960273, 87.26466263288577, 88.14855884739934, 90.15741388038475, 90.15741388038475, 92.32697731600898, 93.44045696286375, 93.92258217078025, 93.92258217078025, 94.15216560312143, 94.9212701014644, 96.96456264930099, 96.96456264930099, 98.82418845126462, 100.63789756676, 101.36108537863475, 101.36108537863475, 101.84321058655124, 102.07279401889244, 102.18758573506304, 102.18758573506304, 102.60083591327718, 103.03704443472543, 103.22071118059837, 103.22071118059837, 103.54212798587604, 104.70152431919904, 105.17217035549848, 105.17217035549848, 104.44898254362374, 104.05869070864371, 103.89798230600489, 103.89798230600489, 103.89798230600489, 103.39289875485427, 103.28958621030073, 103.28958621030073, 103.41585709808838, 103.85206561953663, 103.57656550072723, 103.57656550072723, 103.06000277795955, 102.73858597268189, 102.77302348753305, 102.77302348753305, 102.63527342812834, 102.02687733242419, 101.69398135552947, 101.69398135552947, 101.6595438406783, 101.42996040833711, 100.39683496280176, 100.39683496280176, 99.45554289020289, 98.77827176479637, 98.70939673509402, 98.70939673509402, 99.12264691330816, 99.23743862947876, 99.48998040505407, 99.48998040505407, 99.52441791990523, 99.4211053753517, 97.94029223675103, 97.94029223675103, 97.3318961410469]",100.83247893482618,1.9607781001832336,None
reward-effort-pgACC-TUS,R88533/RE002,B_5,1,2024-08-15_16h50.58.062,2024-08-15 16:51:25,None,None,7,,,2.658517456054687,1,12,avoid,normal,heart,0.5,4.733255499973893,2,75,-40,-46,accept,146.45776280015707,success,0,-36,"[0.6083960957041497, 0.642833610555328, 0.642833610555328, 0.7231878118747439, 0.941292072598873, 1.4578547953665473, 1.4578547953665473, 1.951459174900103, 2.8583137326477974, 3.765168290395492, 3.765168290395492, 5.21154391414498, 8.666774570879868, 11.800588422337093, 11.800588422337093, 16.552965471799695, 21.753030214327616, 27.928824544305584, 27.928824544305584, 34.21941059045415, 40.6018300095392, 43.90783143525231, 43.90783143525231, 46.938332742156, 49.87700067612322, 54.43423180809581, 54.43423180809581, 57.0400037651683, 60.196775959859636, 63.158402237060976, 63.158402237060976, 67.83042508520415, 71.06755148121492, 75.46407421054869, 75.46407421054869, 77.61067930293879, 80.96259741512014, 83.30434842500027, 83.30434842500027, 84.21120298274796, 83.51097351410733, 83.07476499265908, 83.07476499265908, 83.10920250751026, 83.47653599925616, 84.3719113853868, 84.3719113853868, 84.75072404874976, 84.44078641508915, 83.66020274512911, 83.66020274512911, 83.56836937219263, 83.48801517087323, 83.01736913457378, 82.39749386725256, 82.39749386725256, 81.8809311444849, 81.31845173524898, 81.31845173524898, 79.69988853724361, 78.57492971877178, 78.56345054715473, 78.56345054715473, 78.80451315111297, 79.34403421711477, 80.10165954384068, 80.10165954384068, 80.38863883426718, 80.25088877486246, 80.17053457354305, 80.17053457354305, 80.28532628971364, 80.52638889367188, 80.99703492997132, 80.99703492997132, 81.43324345141959, 81.54803516759017, 81.28401422039782, 81.28401422039782, 80.33124297618188, 79.5047426197536, 78.95374238213475, 78.95374238213475, 78.68972143494238, 78.4830963458353, 77.96653362306763, 77.96653362306763, 77.65659598940702, 77.4384917286829, 77.31222084089525, 77.31222084089525, 77.31222084089525, 77.58772095970468, 77.84026273527999]",80.61652861833696,1.5571316999848932,None
reward-effort-pgACC-TUS,R88533/RE002,B_5,1,2024-08-15_16h50.58.062,2024-08-15 16:51:25,None,None,7,,,2.658517456054687,1,13,avoid,normal,heart,None,None,None,50,-100,-97,accept,162.11458789999597,success,0,-36,"[0.26402094719236685, 0.34437514851178286, 0.34437514851178286, 0.3673334917459017, 0.5969169240870903, 0.5969169240870903, 1.1708755049400617, 1.6759590560906763, 2.112167577538935, 2.112167577538935, 2.559855270604252, 3.501147343203125, 5.774023323380892, 5.774023323380892, 9.125941435562247, 12.914068069191856, 18.125611983336835, 22.522134712670596, 22.522134712670596, 28.36503306575385, 34.2079314188371, 39.16693355740677, 39.16693355740677, 42.43849746826871, 45.664144692662404, 48.39618753752255, 48.39618753752255, 52.2302308576204, 55.85764908861117, 58.5667335902372, 58.5667335902372, 61.011797144670865, 62.85994377501743, 67.35977904890473, 67.35977904890473, 69.27680070895364, 69.9655510059772, 70.04590520729663, 70.04590520729663, 70.21809278155253, 70.4476762138937, 70.42471787065959, 70.42471787065959, 69.93111349112604, 69.67857171555073, 69.42602993997542, 69.42602993997542, 69.01277976176128, 68.3584669795889, 67.55492496639474, 67.55492496639474, 67.23350816111707, 66.94652887069059, 66.6825079234982, 66.6825079234982, 66.47588283439116, 66.20038271558172, 65.95932011162347, 65.95932011162347, 65.68381999281405, 65.61494496311168, 65.56902827664345, 65.56902827664345, 65.56902827664345, 65.21317395651461, 64.38667360008633, 64.38667360008633, 64.35223608523515, 64.44406945817163, 64.3981527717034, 64.3981527717034, 64.37519442846927, 64.29484022714985, 64.15709016774514, 63.26171478161451, 63.26171478161451, 62.687756200761534, 62.354860223866815, 62.354860223866815, 62.29746436578152, 62.1597143063768, 61.91865170241856, 61.838297501099134, 61.838297501099134, 61.643151583609125, 61.505401524204416, 61.41356815126794]",64.60459271288119,1.4517178998794407,None
reward-effort-pgACC-TUS,R88533/RE002,B_5,1,2024-08-15_16h50.58.062,2024-08-15 16:51:25,None,None,7,,,2.658517456054687,1,14,avoid,normal,heart,None,None,None,100,-20,-19,reject,170.83302080002613,None,-19,-55,"null",None,None,None
reward-effort-pgACC-TUS,R88533/RE002,B_5,1,2024-08-15_16h50.58.062,2024-08-15 16:51:25,None,None,7,,,2.658517456054687,1,15,avoid,normal,heart,None,None,None,85,-40,-45,accept,178.39081680006348,success,0,-55,"[0.5739585808529714, 0.5395210660017931, 0.5395210660017931, 0.562479409235912, 0.6083960957041497, 0.6083960957041497, 0.6083960957041497, 0.7002294686406252, 0.9527712442159325, 0.9527712442159325, 1.8596258019636274, 3.0419804785207485, 4.763856221079663, 4.763856221079663, 8.173170191346312, 10.365691970204663, 13.694651739151897, 13.694651739151897, 19.135779085638067, 23.750406075695956, 27.72219945519852, 27.72219945519852, 32.8763475112582, 36.06755722080072, 41.89897640226691, 41.89897640226691, 44.81468599300001, 47.914062329606054, 51.50704304574565, 55.50179476848234, 55.50179476848234, 58.40602518759837, 60.82813039879791, 62.29746436578152, 62.29746436578152, 66.45292449115703, 68.89798804559068, 71.35453077164141, 71.35453077164141, 74.4998237947157, 75.7969701874434, 76.96784569238346, 76.96784569238346, 77.65659598940702, 78.57492971877178, 79.43586759005125, 79.43586759005125, 79.89503445473362, 81.23809753392958, 82.65003564282787, 82.65003564282787, 84.29155718406737, 84.69332819066446, 84.91143245138859, 85.6460994348804, 85.6460994348804, 86.66774570879868, 87.29910014773695, 87.8501003853558, 87.8501003853558, 88.87174665927408, 89.22760097940294, 89.15872594970058, 89.15872594970058, 89.68676784408531, 90.37551814110888, 90.69693494638655, 90.69693494638655, 90.74285163285478, 91.05278926651539, 91.69562287707072, 91.69562287707072, 92.56803991996722, 93.49785282094905, 93.84222796946082, 93.84222796946082, 94.33583234899437, 94.9212701014644, 94.70316584074028, 94.70316584074028, 94.0488530585679, 93.94554051401435, 94.42766572193085, 94.42766572193085, 94.68020749750616, 94.4735824083991, 94.59985329618674, 94.59985329618674, 94.56541578133557, 94.09476974503613, 93.88814465592907, 93.88814465592907, 93.63560288035376, 93.26826938860785, 92.94685258333018, 92.94685258333018, 92.59099826320136, 92.69431080775487, 92.93537341171313, 92.93537341171313, 92.57951909158429, 92.00556051073133, 91.73006039192188, 91.73006039192188, 91.91372713779484, 91.93668548102896, 92.05147719719955, 92.05147719719955, 92.00556051073133]",91.15516089536257,1.8074910999275744,None
reward-effort-pgACC-TUS,R88533/RE002,B_5,1,2024-08-15_16h50.58.062,2024-08-15 16:51:25,None,None,7,,,2.658517456054687,1,16,avoid,normal,heart,None,None,None,50,-20,-22,reject,187.10756639996544,None,-22,-77,"null",None,None,None
reward-effort-pgACC-TUS,R88533/RE002,B_5,1,2024-08-15_16h50.58.062,2024-08-15 16:51:25,None,None,7,,,2.658517456054687,1,17,avoid,normal,heart,0.6,5.968507099896669,3,80,-100,-81,accept,194.3070559001062,success,0,-77,"[0.321416805277664, 0.3788126633629611, 0.3673334917459017, 0.4362085214482583, 0.4362085214482583, 0.482125207916496, 0.6657919537894469, 0.6657919537894469, 1.0675629603865266, 1.5382089966859633, 2.4450635544336583, 2.4450635544336583, 3.7192516039272547, 6.543127821723874, 9.596587471861682, 9.596587471861682, 12.776318009787143, 19.62938346517162, 24.335843828165988, 24.335843828165988, 29.650700286864502, 35.65430704258659, 40.90028847158274, 40.90028847158274, 44.41291498640293, 47.29418706228484, 50.37060505565677, 50.37060505565677, 53.84879405562578, 56.798941161210045, 60.47227607866906, 60.47227607866906, 61.895693359184435, 65.5575491050264, 67.92225845814063, 70.26400946802076, 70.26400946802076, 73.35190663300975, 74.92455314454689, 75.64774095642163, 75.64774095642163, 76.18726202242343, 76.83009563297875, 76.88749149106405, 76.88749149106405, 76.95636652076641, 77.03672072208582, 77.26630415442702, 77.26630415442702, 77.34665835574643, 77.50736675838526, 77.59920013132174, 77.59920013132174, 77.77138770557762, 77.9206169365994, 77.9206169365994, 78.5404922039206, 79.22924250094418, 81.10034747452485, 81.10034747452485, 82.85666073193495, 84.17676546789679, 84.78516156360094, 84.78516156360094, 85.43947434577332, 86.30041221705278, 88.40110062297467, 88.40110062297467, 89.76712204540472, 91.20201849753715, 90.75433080447183, 90.75433080447183, 91.37420607179305, 91.89076879456071, 91.98260216749719, 91.36272690017599, 91.36272690017599, 90.44439317081124, 90.00818464936297, 89.9163512764265, 89.9163512764265, 89.84747624672414, 89.25055932263706, 89.21612180778588, 89.21612180778588, 89.12428843484939, 88.42405896620878, 87.93045458667522, 87.93045458667522, 87.81566287050462, 87.62051695301462, 87.66643363948286, 87.66643363948286, 87.65495446786579, 87.40241269229048, 86.58739150747927, 86.58739150747927, 85.69201612134863, 84.85403659330329, 84.87699493653741, 84.87699493653741, 84.94586996623977]",84.9183952276153,1.6971357001457363,None
reward-effort-pgACC-TUS,R88533/RE002,B_5,1,2024-08-15_16h50.58.062,2024-08-15 16:51:25,None,None,7,,,2.658517456054687,1,18,avoid,normal,heart,None,None,None,75,-60,-56,accept,211.90208410006016,success,0,-77,"[0.29845846204354515, 0.2869792904264857, 0.2869792904264857, 0.29845846204354515, 0.3788126633629611, 0.34437514851178286, 0.34437514851178286, 0.35585432012884227, 0.40177100659708, 0.39029183498002057, 0.39029183498002057, 0.5739585808529714, 1.1364379900888832, 1.825188287112449, 1.825188287112449, 2.8009178745625007, 4.5227936171214145, 6.692357052745647, 6.692357052745647, 9.596587471861682, 13.143651501533046, 17.930466065846826, 17.930466065846826, 22.774676488245905, 26.918657442004356, 31.602159461764607, 31.602159461764607, 34.4030773363271, 36.45784905578074, 39.09805852770441, 39.09805852770441, 42.00228894682045, 43.97670646495467, 46.34141581806891, 46.34141581806891, 49.23416706556789, 52.29910588732275, 56.68414944503945, 56.68414944503945, 59.312879745346066, 60.91996377173439, 61.88421418756738, 61.88421418756738, 63.491298213955695, 66.57919537894468, 67.89930011490651, 67.89930011490651, 68.40438366605713, 68.79467550103715, 69.66709254393368, 69.66709254393368, 70.1951344383184, 71.20530154061964, 72.0891977551332, 72.0891977551332, 73.19119823037092, 74.17840698943803, 75.15413657688808, 75.15413657688808, 75.77401184420928, 75.716615986124, 76.0265536197846, 76.0265536197846, 76.79565811812758, 77.46145007191701, 77.73695019072645, 77.73695019072645, 78.26499208511119, 78.63232557685708, 78.81599232273004, 78.81599232273004, 78.43717965936708, 77.69103350425821, 77.31222084089525, 77.31222084089525, 77.17447078149053, 77.27778332604407, 77.47292924353408, 77.47292924353408, 78.12724202570647, 78.63232557685708, 78.3453462864306, 78.3453462864306, 78.3453462864306, 78.66676309170826, 79.01113824022005, 79.01113824022005, 79.06853409830535, 79.20628415771004, 79.20628415771004, 79.8720761114995, 81.11182664614192, 81.45620179465371, 81.89241031610196, 81.89241031610196, 82.20234794976257, 82.17938960652845, 81.47916013788782, 81.47916013788782, 81.15774333261015, 81.1462641609931, 81.35288925010016, 81.35288925010016, 81.70874357022902, 82.3630563524014, 83.49949434249028, 83.49949434249028, 83.98161955040678, 83.74055694644854, 83.66020274512911, 83.66020274512911, 82.95997327648848, 82.74186901576435, 82.51228558342318]",79.15867382297043,1.8950016999151558,None
reward-effort-pgACC-TUS,R88533/RE002,B_5,1,2024-08-15_16h50.58.062,2024-08-15 16:51:25,None,None,7,,,2.658517456054687,1,19,avoid,normal,heart,None,None,None,70,-40,-34,accept,220.76789290015586,success,0,-77,"[0.482125207916496, 0.4247293498311988, 0.4247293498311988, 0.44768769306531775, 0.5395210660017931, 1.124958818471824, 1.124958818471824, 1.8022299438783302, 2.674646986774847, 4.22433515507787, 4.22433515507787, 5.62479409235912, 8.678253742496928, 10.790421320035861, 10.790421320035861, 15.519840026264347, 20.387008791897543, 25.437844303403693, 25.437844303403693, 32.187597214234636, 36.021640534332484, 41.53164291052101, 41.53164291052101, 43.50606042865523, 45.43456126032122, 47.822228956669576, 47.822228956669576, 50.39356339889088, 53.756960682689304, 57.6598790324895, 57.6598790324895, 60.58706779483967, 62.17119347799386, 65.31648650106816, 65.31648650106816, 67.1416747881806, 68.5536128970789, 69.4604674548266, 69.4604674548266, 70.41323869904254, 70.96423893666139, 71.33157242840728, 71.33157242840728, 71.51523917428023, 71.8940518376432, 72.19251029968675, 72.19251029968675, 72.2613853293891, 71.75630177823848, 71.35453077164141, 71.35453077164141, 70.5624679300643, 70.55098875844725, 71.7792601214726, 71.7792601214726, 73.07640651420031, 73.98326107194802, 74.95899065939807, 74.95899065939807, 75.94619941846517, 77.02524155046876, 77.88617942174821, 77.88617942174821, 79.47030510490242, 81.59395185405842, 82.62707729959376, 82.62707729959376, 82.51228558342318, 82.0760770619749, 82.25974380784787, 82.25974380784787, 82.32861883755021, 81.42176427980252, 81.32993090686604, 81.32993090686604, 82.08755623359197, 83.15511919397849, 83.25843173853204, 83.25843173853204, 83.37322345470263, 83.54541102895851, 83.63724440189499, 83.63724440189499, 82.54672309827434, 82.08755623359197, 81.35288925010016, 81.35288925010016, 81.03147244482251, 80.97407658673721, 80.97407658673721, 80.54934723690602, 80.7215348111619, 80.97407658673721, 80.97407658673721, 81.0888683029078, 81.30697256363193, 81.66282688376077]",77.56383687682404,1.61809440003708,None
reward-effort-pgACC-TUS,R88533/RE002,B_5,1,2024-08-15_16h50.58.062,2024-08-15 16:51:25,None,None,7,,,2.658517456054687,1,20,avoid,normal,heart,None,None,None,85,-20,-22,reject,228.0748705000151,None,-22,-99,"null",None,None,None
reward-effort-pgACC-TUS,R88533/RE002,B_5,1,2024-08-15_16h50.58.062,2024-08-15 16:51:25,None,None,7,,,2.658517456054687,1,21,avoid,normal,heart,None,None,None,70,-80,-81,reject,228.9097806001082,None,-81,-180,"null",None,None,None
reward-effort-pgACC-TUS,R88533/RE002,B_5,1,2024-08-15_16h50.58.062,2024-08-15 16:51:25,None,None,7,,,2.658517456054687,1,22,avoid,normal,heart,None,None,None,95,-80,-75,accept,235.796981099993,success,0,-180,"[0.482125207916496, 0.41325017821413945, 0.41325017821413945, 0.4247293498311988, 0.41325017821413945, 0.4362085214482583, 0.4362085214482583, 0.482125207916496, 0.49360437953355535, 0.5050835511506149, 0.5050835511506149, 0.482125207916496, 0.5165627227676742, 0.4247293498311988, 0.4247293498311988, 0.4362085214482583, 0.4362085214482583, 0.41325017821413945, 0.41325017821413945, 0.40177100659708, 0.4591668646823771, 0.482125207916496, 0.482125207916496, 0.482125207916496, 0.482125207916496, 0.482125207916496, 0.41325017821413945, 0.41325017821413945, 0.4247293498311988, 0.4362085214482583, 0.41325017821413945, 0.41325017821413945, 0.4247293498311988, 0.4362085214482583, 0.5050835511506149, 0.5050835511506149, 0.9527712442159325, 2.0547717194536377, 3.501147343203125, 3.501147343203125, 5.257460600613218, 9.332566524669316, 12.328630316721826, 12.328630316721826, 18.217445356273313, 22.728759801777667, 28.4339080954562, 28.4339080954562, 34.299764791773576, 37.98457888084965, 43.276476996314045, 43.276476996314045, 45.96260315470595, 49.4867088411432, 52.918981154643966, 56.66119110180534, 56.66119110180534, 60.759255369095555, 63.54869407204099, 68.40438366605713, 68.40438366605713, 71.02163479474667, 74.76384474190806, 77.53032510161938, 77.53032510161938, 79.30959670226359, 81.69726439861195, 84.88847410815447, 84.88847410815447, 87.18430843156636, 88.97505920382763, 91.31681021370775, 91.31681021370775, 92.7746650090743, 94.42766572193085, 95.31156193644443, 95.31156193644443, 96.97604182091804, 98.52572998922106, 99.86879306841703, 99.86879306841703, 100.53458502220647, 100.95931437203767, 101.57918963935887, 101.61362715421005, 101.61362715421005, 101.602147982593, 101.7398980419977, 102.1646273918289, 102.1646273918289, 102.72710680106482, 102.69266928621363, 102.71562762944777, 102.71562762944777, 103.06000277795955, 102.99112774825718, 102.49752336872365, 102.49752336872365, 101.93504395948771, 101.94652313110477, 102.01539816080714, 102.01539816080714, 101.67102301229536, 101.37256455025181, 101.32664786378358, 101.32664786378358, 101.37256455025181, 101.24629366246415, 101.01671023012298, 100.60346005190883, 100.60346005190883, 100.66085590999411, 100.68381425322825, 100.69529342484532, 100.69529342484532, 100.63789756676, 100.82156431263296, 101.02818940174004, 101.02818940174004, 101.09706443144238, 100.97079354365472, 100.78712679778177, 100.78712679778177, 100.47718916412119, 100.31648076148234, 99.91470975488527, 99.91470975488527, 99.77695969548054, 99.27187614432992, 98.41093827305048, 98.41093827305048, 97.79106300572927]",100.23273926362016,2.204781100153923,None
reward-effort-pgACC-TUS,R88533/RE002,B_5,1,2024-08-15_16h50.58.062,2024-08-15 16:51:25,None,None,7,,,2.658517456054687,1,23,avoid,normal,heart,0.6,3.898820099886507,0,55,-80,-88,accept,243.2686195001006,success,0,-180,"[0.9757295874500514, 0.941292072598873, 0.9068545577476949, 0.883896214513576, 0.883896214513576, 0.883896214513576, 0.9068545577476949, 0.9986879306841702, 1.1364379900888832, 1.1364379900888832, 1.5382089966859633, 1.848146630346568, 2.284355151794826, 2.284355151794826, 3.3633972837984123, 4.706460362994366, 6.921940485086835, 6.921940485086835, 10.147587709480534, 13.327318247405994, 19.881925240746927, 19.881925240746927, 24.22105211199539, 30.086908808312764, 35.286973550840685, 41.072476045838634, 41.072476045838634, 44.49326918772235, 48.77500020088551, 52.448335118344524, 52.448335118344524, 56.7300661315077, 59.163650514324296, 61.19546389054381, 61.19546389054381, 64.45554862978868, 66.76286212481763, 68.16332106209887, 68.16332106209887, 69.07017561984658, 69.72448840201896, 70.20661360993546, 70.20661360993546, 70.32140532610606, 70.28696781125487, 70.12625940861604, 70.12625940861604, 70.09182189376487, 69.8851968046578, 69.69005088716779, 69.69005088716779, 69.49490496967778, 69.4604674548266, 69.17348816440011, 69.17348816440011, 69.20792567925129, 68.7258004713348, 68.16332106209887, 68.16332106209887, 67.92225845814063, 67.9337376297577, 67.83042508520415, 67.75007088388475, 67.75007088388475, 67.72711254065062, 67.71563336903357, 67.63527916771415, 67.63527916771415, 67.89930011490651, 68.42734200929125, 68.79467550103715, 68.79467550103715, 68.8635505307395, 68.96686307529303, 68.96686307529303, 69.32271739542189, 69.19644650763423, 69.05869644822951, 69.05869644822951, 69.21940485086834, 69.49490496967778, 69.41455076835837, 69.0357381049954, 69.0357381049954, 68.77171715780304, 68.59952958354715, 68.54213372546184, 68.54213372546184, 68.31255029312065, 68.02557100269418]",67.6386664642569,1.509887599851936,None
reward-effort-pgACC-TUS,R88533/RE002,B_5,1,2024-08-15_16h50.58.062,2024-08-15 16:51:25,None,None,7,,,2.658517456054687,1,24,avoid,normal,heart,None,None,None,100,-80,-77,accept,272.9068986000493,success,0,-180,"[-0.33289597689472344, -0.34437514851178286, -0.39029183498002057, -0.40177100659708, -0.40177100659708, -0.41325017821413945, -0.40177100659708, -0.34437514851178286, -0.34437514851178286, -0.34437514851178286, -0.35585432012884227, -0.33289597689472344, -0.33289597689472344, -0.33289597689472344, -0.3788126633629611, -0.39029183498002057, -0.39029183498002057, -0.3788126633629611, -0.40177100659708, -0.44768769306531775, -0.44768769306531775, -0.40177100659708, -0.41325017821413945, -0.39029183498002057, -0.39029183498002057, -0.39029183498002057, -0.2869792904264857, 0.22958343234118855, 0.22958343234118855, 0.8379795280453382, 1.9973758613683403, 2.8812720758819164, 2.8812720758819164, 3.4896681715860662, 3.81108497686373, 4.0636267524390375, 4.0636267524390375, 4.040668409204919, 3.7996058052466704, 3.558543201288423, 3.558543201288423, 3.3404389405642934, 3.1108555082231053, 2.743522016477203, 2.743522016477203, 2.5024594125189554, 2.3187926666460044, 1.8940633168148056, 1.8940633168148056, 1.6644798844736173, 1.0790421320035861, 1.1823546765571211, 1.1823546765571211, 1.5496881683030228, 1.5382089966859633, 1.5611673399200823, 1.6874382277077358, 1.6874382277077358, 1.6874382277077358, 2.21548012209247, 2.376188524731302, 2.376188524731302, 2.5368969273701336, 2.973105448818392, 3.3289597689472346, 3.3289597689472346, 3.581501544522542, 3.7192516039272547, 3.8225641484807893, 3.8225641484807893, 4.22433515507787, 4.5227936171214145, 4.763856221079663, 4.936043795335554, 4.936043795335554, 5.303377287081456, 5.877335867934427, 6.038044270573259, 6.038044270573259, 7.013773858023311, 7.702524155046876, 9.01114971939165, 9.01114971939165, 11.284025699569417, 13.981631029578384, 16.357819554309685, 16.357819554309685, 18.160049498188016, 18.068216125251542, 18.43554961699744, 18.43554961699744, 20.409967135131662, 22.223676250627054, 22.969822405735915, 22.969822405735915, 23.979989508037143, 24.28992714169775, 24.955719095487197, 24.955719095487197, 25.2656567291478, 30.098387979929818, 30.098387979929818, 38.053453910552, 48.12068741871312, 57.01704542193418, 57.01704542193418, 64.43259028655457, 70.94128059342727, 77.48440841515114, 80.98555575835427, 80.98555575835427, 84.89995327977154, 88.71103825663525, 92.24662311468957, 92.24662311468957, 93.46341530609786, 95.90847886053152, 100.2131682169288, 100.2131682169288, 101.90060644463654, 102.42864833902128, 103.39289875485427, 103.39289875485427, 104.00129485055842, 104.89667023668905, 105.53950384724438, 105.53950384724438, 105.39027461622261, 105.01146195285965, 104.29975331260198, 104.29975331260198, 104.74744100566728, 104.85075355022082, 104.04721153702666, 104.04721153702666, 103.64544053042957, 104.01277402217548, 103.96685733570723, 103.96685733570723, 103.09444029281072, 103.27810703868367, 104.07016988026076, 104.20791993966549, 104.20791993966549, 104.38010751392137, 104.24235745451666, 104.24235745451666, 104.69004514758198, 105.71169142150028, 106.2167749726509, 106.2167749726509, 106.32008751720443, 107.55983805184684, 108.3059842069557, 108.29450503533864, 108.29450503533864, 108.35190089342395, 108.34042172180689, 109.01769284721338, 109.01769284721338, 110.09673497921698, 110.4296309561117, 110.75104776138936, 110.75104776138936, 110.85436030594289, 111.09542290990116, 111.25613131253998, 111.25613131253998, 111.39388137194469, 111.48571474488116, 111.52015225973236, 111.52015225973236, 111.81861072177588, 111.39388137194469, 111.06098539504995, 111.06098539504995, 110.86583947755994]",106.49810876883951,2.9467364998999983,None
reward-effort-pgACC-TUS,R88533/RE002,B_5,1,2024-08-15_16h50.58.062,2024-08-15 16:51:25,None,None,7,,,2.658517456054687,1,25,avoid,normal,heart,None,None,None,55,-100,-115,accept,283.1398212001659,success,0,-180,"[1.9170216600489245, 2.123646749155994, 2.330271838263064, 2.330271838263064, 2.4335843828165986, 2.4909802409018957, 2.6631678151577876, 2.6631678151577876, 3.248605567627818, 3.765168290395492, 4.132501782141394, 4.132501782141394, 4.270251841546107, 4.740897877845543, 6.152835986743853, 8.597899541177512, 8.597899541177512, 10.159066881097594, 14.45227706587782, 14.45227706587782, 19.514591749001028, 25.346010930467216, 30.132825494780995, 30.132825494780995, 36.53820325710016, 42.38110161018341, 46.03147818440831, 50.61166765961502, 50.61166765961502, 54.93931535924642, 59.106254656239, 63.26171478161451, 63.26171478161451, 68.04852934592829, 70.99867645151257, 73.93734438547978, 73.93734438547978, 73.8455110125433, 72.8583022534762, 72.28434367262322, 72.28434367262322, 71.1019889960661, 70.6198637881496, 70.6198637881496, 70.6198637881496, 69.95407183436015, 69.18496733601718, 68.4962170389936, 67.64675833933121, 67.64675833933121, 66.93504969907352, 66.2348202304329, 65.63790330634582, 65.63790330634582, 65.24761147136579, 63.04361052089038, 61.76942247139679, 61.76942247139679, 60.90848460011733, 61.03475548790498, 61.298776435097345, 61.298776435097345, 61.43652649450206, 61.585755725523825, 61.6775890984603, 61.6775890984603, 61.82681832948208, 61.861255844333265, 62.044922590206205, 62.389297738718, 62.389297738718, 62.607401999442125, 62.65331868591035, 62.641839514293295, 62.641839514293295, 62.13675596314269, 61.51688069582148, 60.90848460011733, 60.90848460011733, 60.56410945160554, 60.52967193675436, 60.61002613807378, 60.61002613807378, 60.82813039879791, 61.103630517607336, 61.103630517607336, 61.103630517607336, 60.97735962981968, 60.82813039879791, 60.793692883946726, 60.793692883946726]",64.32613022720281,1.528468000004068,None
reward-effort-pgACC-TUS,R88533/RE002,B_5,1,2024-08-15_16h50.58.062,2024-08-15 16:51:25,None,None,7,,,2.658517456054687,1,26,avoid,normal,heart,None,None,None,65,-100,-106,accept,291.794121599989,success,0,-180,"[0.8494586996623976, 0.9183337293647542, 0.9068545577476949, 0.9068545577476949, 0.9068545577476949, 0.9068545577476949, 1.044604617152408, 1.5956048547712605, 1.5956048547712605, 2.181042607241291, 2.81239704617956, 2.81239704617956, 3.7422099471613732, 6.967857171555073, 10.25090025403407, 10.25090025403407, 16.908819791928536, 22.958343234118857, 32.15315969938346, 38.19120396995672, 38.19120396995672, 43.827477233932896, 49.326000438504366, 54.33091926354228, 54.33091926354228, 57.694316547340684, 60.26565098956199, 61.654630755226194, 61.654630755226194, 65.53459076179227, 68.3010711215036, 71.7218642633873, 71.7218642633873, 74.70644888382276, 76.88749149106405, 77.49588758676819, 77.49588758676819, 77.85174190689705, 77.84026273527999, 77.41553338544878, 77.41553338544878, 77.16299160987347, 77.09411658017112, 76.94488734914935, 76.94488734914935, 76.30205373859403, 76.2790953953599, 76.30205373859403, 76.30205373859403, 76.06099113463577, 75.94619941846517, 76.03803279140166, 76.03803279140166, 76.15282450757225, 76.5890330290205, 77.09411658017112, 77.09411658017112, 77.42701255706585, 77.66807516102409, 77.62215847455586, 77.62215847455586, 77.72547101910938, 77.87470025013116, 78.05836699600411, 78.47161717421825, 78.47161717421825, 78.94226321051768, 79.4473467616683, 79.4473467616683, 79.0226174118371, 78.4027421445159, 77.95505445145058, 77.61067930293879, 77.61067930293879, 77.30074166927818, 76.95636652076641, 76.63494971548874, 76.63494971548874, 76.40536628314756, 75.93472024684812, 75.57886592671927, 75.57886592671927, 75.46407421054869, 75.55590758348517, 75.69365764288986, 75.69365764288986, 75.18857409173926, 75.14265740527102, 75.14265740527102, 75.14265740527102]",76.42888917580548,1.4963034000247717,None
reward-effort-pgACC-TUS,R88533/RE002,B_5,1,2024-08-15_16h50.58.062,2024-08-15 16:51:25,None,None,7,,,2.658517456054687,1,27,avoid,normal,heart,None,None,None,90,-20,-22,reject,300.35834669996984,None,-22,-202,"null",None,None,None
reward-effort-pgACC-TUS,R88533/RE002,B_5,1,2024-08-15_16h50.58.062,2024-08-15 16:51:25,None,None,7,,,2.658517456054687,1,28,avoid,normal,heart,None,None,None,85,-80,-87,accept,307.333776100073,success,0,-202,"[0.80354201319416, 0.7920628415771005, 0.7920628415771005, 0.7691044983429817, 0.8150211848112194, 2.6631678151577876, 3.4667098283519473, 3.4667098283519473, 4.936043795335554, 7.277794805215677, 10.296816940502307, 10.296816940502307, 12.914068069191856, 17.081007366184426, 21.71859269947644, 21.71859269947644, 25.839615310000774, 28.789762415585045, 33.989827158112966, 36.30861982475897, 36.30861982475897, 40.49851746498566, 43.655289659677, 46.03147818440831, 46.03147818440831, 48.82091688735375, 53.711043996221065, 57.30402471236067, 57.30402471236067, 60.95440128658556, 62.82550626016625, 66.37257028983761, 68.7258004713348, 68.7258004713348, 70.40175952742547, 72.69759385083736, 73.55853172211681, 73.55853172211681, 73.09936485743444, 72.36469787394263, 73.45521917756328, 73.45521917756328, 74.54574048118393, 75.70513681450693, 77.3237000125123, 77.3237000125123, 78.97670072536886, 82.28270215108198, 84.44078641508915, 84.44078641508915, 85.09509919726153, 85.85272452398746, 88.03376713122876, 90.14593470876768, 90.14593470876768, 91.46603944472952, 91.68414370545365, 91.71858122030483, 91.71858122030483, 91.97112299588014, 92.07443554043367, 91.63822701898542, 91.63822701898542, 91.56935198928305, 91.77597707839013, 91.56935198928305, 91.56935198928305, 91.39716441502716, 91.59231033251717, 92.15478974175309, 92.15478974175309, 92.56803991996722, 92.31549814439191, 92.60247743481841, 92.60247743481841, 93.11904015758607, 92.69431080775487, 92.17774808498721, 92.17774808498721, 92.39585234571133, 93.05016512788372, 93.36010276154433, 93.36010276154433, 93.00424844141548, 92.92389424009608, 92.76318583745724, 92.41881068894546, 92.41881068894546, 91.73006039192188, 91.25941435562245, 91.12166429621774, 91.12166429621774, 90.51326820051358, 89.56049695629765, 88.52737151076231, 88.52737151076231, 88.51589233914525, 88.09116298931406, 87.8271420421217, 87.8271420421217, 87.64347529624872, 87.89601707182403, 88.9865383754447, 89.29647600910529, 89.29647600910529, 89.48014275497825, 90.19185139523593, 90.63953908830125]",90.52681738668453,1.8501473001670092,None
reward-effort-pgACC-TUS,R88533/RE002,B_5,1,2024-08-15_16h50.58.062,2024-08-15 16:51:25,None,None,7,,,2.658517456054687,1,29,avoid,normal,heart,None,None,None,60,-60,-63,accept,316.22834320017137,success,0,-202,"[0.8265003564282789, 0.8494586996623976, 1.2167921914082993, 1.2167921914082993, 2.284355151794826, 3.3404389405642934, 5.245981428996158, 5.245981428996158, 7.874711729302768, 10.044275164926999, 13.820922626939552, 13.820922626939552, 18.05673695363448, 22.92390571926768, 27.412261821537914, 27.412261821537914, 33.186285144918806, 39.281725273577365, 43.74712303261348, 43.74712303261348, 48.361750022671366, 51.35781381472388, 55.765815715674705, 55.765815715674705, 57.648399860872445, 60.27713016117906, 61.19546389054381, 61.19546389054381, 62.814027088549196, 65.56902827664345, 67.0842789300953, 67.0842789300953, 68.16332106209887, 69.13905064954893, 69.13905064954893, 69.54082165614601, 69.8851968046578, 70.1377385802331, 71.84813515117496, 71.84813515117496, 72.91569811156148, 73.60444840858506, 73.79959432607505, 73.79959432607505, 73.83403184092624, 73.46669834918033, 72.98457314126384, 72.98457314126384, 72.97309396964678, 73.08788568581738, 73.06492734258326, 73.09936485743444, 73.09936485743444, 73.12232320066856, 72.8009063953909, 72.34173953070851, 72.34173953070851, 72.29582284424028, 73.01901065611503, 73.592969236968, 73.592969236968, 74.12101113135273, 74.31615704884274, 74.98194900263219, 75.31484497952691, 75.31484497952691, 74.82124059999336, 74.37355290692803, 74.25876119075744, 74.25876119075744, 73.77663598284094, 73.62740675181917, 73.39782331947798, 73.39782331947798, 73.13380237228561, 72.44505207526205, 71.81369763632378, 71.81369763632378, 71.03311396636374, 70.99867645151257, 71.04459313798081, 71.2397390554708, 71.2397390554708, 71.07903065283197, 70.63134295976667, 70.41323869904254]",71.31028041653693,1.4383858998771757,None
reward-effort-pgACC-TUS,R88533/RE002,B_5,1,2024-08-15_16h50.58.062,2024-08-15 16:51:25,None,None,7,,,2.658517456054687,1,30,avoid,normal,heart,None,None,None,55,-20,-18,reject,323.420584600186,None,-18,-220,"null",None,None,None
reward-effort-pgACC-TUS,R88533/RE002,B_5,1,2024-08-15_16h50.58.062,2024-08-15 16:51:25,None,None,7,,,2.658517456054687,1,31,avoid,normal,heart,0.6,1.78954270016402,7,100,-100,-89,accept,330.733439899981,success,0,-220,"[1.5496881683030228, 2.548376098987193, 4.029189237587859, 6.3938985907021015, 6.3938985907021015, 8.747128772199284, 11.318463214420596, 11.318463214420596, 14.716298013070187, 18.102653640102716, 21.02984240245287, 21.02984240245287, 23.911114478334788, 29.145616735713887, 34.65561911190241, 34.65561911190241, 41.60051794022337, 45.23941534283121, 49.7392506167185, 49.7392506167185, 54.101335831201084, 58.05017086746953, 60.87404708526615, 60.87404708526615, 63.0091730060392, 68.14036271886476, 71.04459313798081, 71.04459313798081, 75.03934486071748, 77.28926249766113, 79.18332581447594, 79.18332581447594, 83.9471820355556, 86.83993328305458, 91.31681021370775, 91.31681021370775, 93.10756098596902, 94.86387424337912, 95.89699968891446, 95.89699968891446, 97.28597945457865, 99.4211053753517, 100.0754181575241, 100.12133484399233, 100.12133484399233, 99.36370951726641, 98.78975093641344, 98.78975093641344, 99.73104300901231, 100.52310585058942, 100.94783520042061, 100.94783520042061, 101.20037697599591, 101.85468975816832, 102.13018987697772, 102.13018987697772, 102.02687733242419, 102.30237745123362, 102.88781520370365, 102.88781520370365, 103.3010653819178, 103.3240237251519, 103.65691970204665, 103.65691970204665, 104.25383662613372, 104.35714917068725, 104.40306585715551, 105.3673162729885, 105.3673162729885, 106.50375426307737, 107.22694207495212, 108.15675497593394, 108.15675497593394, 108.93733864589396, 109.43094302542752, 109.55721391321518, 109.55721391321518, 109.59165142806636, 109.76383900232224, 109.79827651717342, 109.79827651717342, 108.93733864589396, 108.55852598253102, 108.4781717812116, 108.4781717812116, 108.07640077461451, 107.50244219376155, 107.27285876142037, 107.27285876142037, 107.53687970861272, 108.00752574491217, 107.27285876142037, 107.27285876142037, 107.05475450069623, 106.45783757660914, 106.25121248750207, 105.72317059311733, 105.72317059311733, 104.9425869231573]",104.59538902752656,1.648340699961409,None
reward-effort-pgACC-TUS,R88533/RE002,B_5,1,2024-08-15_16h50.58.062,2024-08-15 16:51:25,None,None,7,,,2.658517456054687,1,32,avoid,normal,heart,None,None,None,80,-40,-36,accept,343.0940484001767,success,0,-220,"[0.6772711254065062, 0.6543127821723874, 0.6543127821723874, 0.7117086402576845, 0.7231878118747439, 0.7231878118747439, 0.7231878118747439, 0.7231878118747439, 0.7346669834918034, 0.6887502970235657, 0.6887502970235657, 0.6657919537894469, 0.6543127821723874, 0.6887502970235657, 0.6887502970235657, 2.066250891070697, 3.960314207885503, 7.576253267259222, 7.576253267259222, 11.559525818378843, 15.737944286988476, 20.605113052621675, 20.605113052621675, 24.09478122420774, 28.1239704617956, 32.45161816142701, 32.45161816142701, 35.59691118450129, 39.178412729023826, 42.63364338575872, 42.63364338575872, 44.84912350785118, 48.32731250782019, 51.116751210765635, 51.116751210765635, 54.39979429324463, 57.108878794870655, 59.703171580326085, 59.703171580326085, 61.562797382289716, 62.687756200761534, 64.21448602583044, 64.21448602583044, 65.61494496311168, 66.48736200600821, 67.40569573537296, 67.40569573537296, 68.22071692018417, 69.72448840201896, 69.72448840201896, 71.8940518376432, 73.61592758020211, 75.38372000922926, 75.38372000922926, 76.97932486400052, 77.58772095970468, 78.27647125672824, 78.27647125672824, 79.34403421711477, 80.20497208839423, 81.2036600190784, 81.2036600190784, 81.58247268244135, 83.72907777483147, 84.36043221376973, 84.36043221376973, 84.11936960981149, 83.61428605866087, 83.54541102895851, 83.54541102895851, 83.64872357351206, 84.54409895964268, 85.11805754049566, 85.11805754049566, 85.42799517415627, 84.86551576492035, 84.5670573028768, 84.5670573028768, 83.22399422368085, 81.92684783095314, 81.92684783095314, 81.11182664614192, 81.24957670554663, 81.98424368903844, 81.98424368903844, 82.51228558342318, 82.25974380784787, 82.19086877814551, 82.19086877814551, 82.19086877814551, 82.03016037550668, 81.69726439861195, 82.23678546461373, 82.23678546461373, 83.14364002236144, 83.02884830619084, 82.70743150091317, 82.70743150091317, 82.53524392665729, 82.7877857022326, 82.77630653061554, 82.77630653061554, 82.17938960652845, 81.75466025669724, 81.6283893689096, 81.6283893689096, 81.59395185405842, 82.31713966593315, 82.31713966593315, 83.74055694644854, 83.91274452070442, 83.84386949100207, 83.75203611806559, 83.75203611806559, 83.64872357351206]",82.47991808312587,1.9126318001654,None
reward-effort-pgACC-TUS,R88533/RE002,B_5,1,2024-08-15_16h50.58.062,2024-08-15 16:51:25,None,None,7,,,2.658517456054687,1,33,avoid,normal,heart,None,None,None,100,-80,-63,accept,351.9728526000399,success,0,-220,"[0.9872087590671107, 1.1364379900888832, 1.1364379900888832, 1.3430630791959532, 1.3430630791959532, 1.503771481834785, 1.5726465115371415, 1.5726465115371415, 1.5726465115371415, 1.5611673399200823, 1.60708402638832, 1.60708402638832, 1.60708402638832, 1.7333549141759736, 2.307313495028945, 3.40931397026665, 5.774023323380892, 5.774023323380892, 9.022628891008711, 11.410296587357072, 15.382089966859633, 15.382089966859633, 20.467362993216963, 24.198093768761275, 27.756636970049698, 27.756636970049698, 33.15184763006763, 36.641515801653696, 41.78418468609632, 41.78418468609632, 44.36699829993469, 47.89110398637194, 50.49687594344442, 50.49687594344442, 54.170210860903445, 57.54508731631891, 60.63298448130789, 62.36633939548387, 62.36633939548387, 66.88913301260528, 69.34567573865601, 72.53688544819853, 72.53688544819853, 74.947511487781, 76.92192900591522, 77.58772095970468, 77.58772095970468, 78.83895066596415, 81.30697256363193, 83.97014037878972, 83.97014037878972, 85.37059931607097, 87.35649600582225, 89.02097589029586, 89.02097589029586, 90.82320583417419, 91.93668548102896, 92.33845648762605, 92.33845648762605, 92.86649838201078, 93.54376950741727, 94.34731152061144, 95.21972856350796, 95.21972856350796, 96.6201875007892, 98.07804229615576, 100.47718916412119, 100.47718916412119, 101.797293900083, 102.1646273918289, 103.00260691987424, 103.00260691987424, 103.85206561953663, 105.10329532579613, 105.97571236869263, 105.97571236869263, 108.13379663269981, 109.15544290661809, 109.99342243466343, 109.99342243466343, 110.94619367887937, 111.27908965577409, 111.3364855138594, 111.3364855138594, 111.52015225973236, 111.5890272894347, 112.08263166896826, 112.08263166896826, 112.97800705509889, 113.47161143463245, 113.78154906829306, 114.29811179106073, 114.29811179106073, 114.3325493059119, 114.29811179106073, 114.29811179106073, 114.29811179106073, 114.30959096267779, 114.19479924650719, 114.04557001548541, 114.04557001548541, 114.06852835871955, 114.12592421680483, 113.4601322630154, 113.4601322630154, 112.71398610790652, 112.3810901310118, 111.71529817722234, 111.42831888679588, 111.42831888679588, 111.06098539504995, 110.73956858977229, 110.1770891805364, 110.1770891805364, 108.61592184061631, 108.363380065041, 108.24858834887041, 108.24858834887041, 107.86977568550743, 107.22694207495212, 106.82517106835503, 106.82517106835503, 105.92979568222441, 104.47194088685785]",109.0101017821118,2.0591841000132263,None
reward-effort-pgACC-TUS,R88533/RE002,B_5,1,2024-08-15_16h50.58.062,2024-08-15 16:51:25,None,None,7,,,2.658517456054687,1,34,avoid,normal,heart,None,None,None,100,-60,-63,accept,358.2203345000744,success,0,-220,"[0.8150211848112194, 0.8150211848112194, 0.8379795280453382, 0.883896214513576, 0.883896214513576, 0.8724170428965166, 0.941292072598873, 0.9068545577476949, 0.9068545577476949, 0.8724170428965166, 0.883896214513576, 0.883896214513576, 0.8379795280453382, 0.8953753861306355, 0.8494586996623976, 0.9527712442159325, 1.825188287112449, 1.825188287112449, 3.0419804785207485, 5.487044032954406, 8.83896214513576, 8.83896214513576, 11.697275877783557, 14.911443930560198, 19.135779085638067, 19.135779085638067, 23.807801933781253, 27.928824544305584, 34.529348224114756, 39.35060030327972, 39.35060030327972, 43.64381048805995, 48.24695830650077, 48.24695830650077, 51.58739724706507, 56.07575334933531, 58.38306684436425, 58.38306684436425, 60.72481785424437, 62.18267264961093, 65.51163241855815, 65.51163241855815, 67.8189459135871, 70.53950958683018, 73.76515681122389, 73.76515681122389, 76.0839494778699, 78.02392948115293, 79.53918013460478, 79.53918013460478, 81.31845173524898, 84.21120298274796, 85.6460994348804, 85.6460994348804, 86.7480999101181, 87.58607943816344, 88.25187139195289, 90.21480973847005, 90.21480973847005, 92.61395660643547, 93.72743625329024, 95.3459994512956, 95.3459994512956, 97.42372951398337, 99.58181377799053, 100.99375188688884, 100.99375188688884, 101.85468975816832, 102.5090025403407, 103.0140860914913, 103.0140860914913, 103.45029461293957, 103.920940649239, 105.5050663323932, 105.5050663323932, 106.91700444129151, 107.82385899903922, 107.82385899903922, 108.66183852708456, 109.0406511904475, 109.47685971189576, 109.47685971189576, 110.0049016062805, 110.03933912113169, 109.68348480100283, 109.68348480100283, 109.71792231585403, 109.0980470485328, 108.6503593554675, 108.6503593554675, 108.67331769870161, 108.87994278780869, 109.02917201883045, 109.02917201883045, 109.71792231585403, 109.82123486040756, 109.77531817393931, 109.77531817393931, 109.80975568879047, 109.8901098901099, 109.80975568879047, 109.80975568879047, 109.82123486040756, 109.80975568879047, 109.85567237525873, 109.85567237525873, 108.63888018385042, 108.4781717812116, 108.60444266899924, 108.60444266899924, 108.58148432576513, 108.06492160299746, 106.89404609805739, 106.89404609805739, 105.0229411244767, 103.16331532251309, 101.54475212450771, 101.54475212450771, 95.32304110806149, 93.5667278506514, 92.51064406188193, 92.51064406188193, 91.91372713779484, 92.51064406188193, 93.23383187375669, 93.23383187375669, 94.46210323678204, 95.55262454040268, 96.20693732257507, 96.20693732257507, 96.37912489683096, 96.18397897934095, 98.36502158658223, 98.36502158658223, 101.31516869216651, 102.18758573506304, 102.84189851723542, 102.84189851723542, 104.20791993966549, 105.64281639179791, 106.98587947099386, 108.29450503533864, 108.29450503533864, 109.0750887052987, 110.0852558075999, 111.09542290990116, 111.09542290990116, 111.45127723002999, 111.68086066237117, 112.50736101879946, 112.72546527952359, 112.72546527952359, 112.66806942143828, 113.19611131582302, 113.89634078446365, 113.89634078446365, 114.04557001548541, 113.91929912769776, 114.11444504518778, 114.11444504518778, 114.03409084386836, 113.99965332901718, 113.98817415740012, 113.98817415740012, 113.03540291318419, 112.42700681748003, 112.26629841484122, 112.26629841484122, 112.10559001220237, 111.7612148636906, 111.50867308811527, 111.50867308811527, 111.19873545445469, 111.24465214092292, 111.27908965577409, 111.27908965577409, 110.53294350066523, 109.28171379440576, 108.31746337857275, 108.31746337857275, 107.44504633567624, 107.10067118716447, 106.6070668076309, 106.6070668076309, 105.97571236869263, 105.82648313767086, 105.63133722018085, 104.7703993489014]",108.46669260959453,3.1299358000978827,None
reward-effort-pgACC-TUS,R88533/RE002,B_5,1,2024-08-15_16h50.58.062,2024-08-15 16:51:25,None,None,7,,,2.658517456054687,1,35,avoid,normal,heart,None,None,None,65,-20,-19,accept,360.7270231000148,success,0,-220,"[1.0905213036206456, 1.1134796468547645, 1.1134796468547645, 1.0790421320035861, 1.1134796468547645, 1.124958818471824, 1.124958818471824, 1.1708755049400617, 1.1708755049400617, 1.1593963333230022, 1.1593963333230022, 1.1708755049400617, 1.124958818471824, 1.0675629603865266, 1.0675629603865266, 1.0905213036206456, 1.0905213036206456, 1.102000475237705, 1.102000475237705, 1.1593963333230022, 1.1479171617059427, 1.1708755049400617, 1.1708755049400617, 1.1708755049400617, 1.0905213036206456, 1.0905213036206456, 1.0905213036206456, 1.1134796468547645, 1.0905213036206456, 1.1479171617059427, 1.1479171617059427, 1.1479171617059427, 1.1593963333230022, 1.1593963333230022, 1.1479171617059427, 1.0790421320035861, 1.124958818471824, 1.102000475237705, 1.102000475237705, 1.1134796468547645, 1.0905213036206456, 1.1593963333230022, 1.1593963333230022, 1.1593963333230022, 1.1479171617059427, 1.1479171617059427, 1.1593963333230022, 1.102000475237705, 1.102000475237705, 1.102000475237705, 1.0905213036206456, 1.0790421320035861, 1.1479171617059427, 1.1479171617059427, 1.1479171617059427, 1.124958818471824, 1.1593963333230022, 1.1593963333230022, 1.102000475237705, 1.0905213036206456, 1.0790421320035861, 1.0790421320035861, 1.0790421320035861, 1.1134796468547645, 1.1134796468547645, 1.1134796468547645, 1.1593963333230022, 1.124958818471824, 1.124958818471824, 1.0675629603865266, 1.0790421320035861, 1.0675629603865266, 1.0560837887694674, 1.0560837887694674, 1.1364379900888832, 1.1364379900888832, 1.124958818471824, 1.124958818471824, 1.1364379900888832, 1.0790421320035861, 1.0790421320035861, 1.0675629603865266, 1.0675629603865266, 1.0790421320035861, 1.0790421320035861, 1.044604617152408, 1.124958818471824, 1.1134796468547645, 1.1134796468547645, 1.102000475237705, 1.124958818471824, 1.0560837887694674, 1.0560837887694674, 1.0905213036206456, 1.0790421320035861, 1.0560837887694674, 1.0560837887694674, 1.0675629603865266, 1.5611673399200823, 1.8596258019636274, 1.8596258019636274, 2.089209234304816, 2.21548012209247, 2.284355151794826, 2.284355151794826, 2.307313495028945, 2.284355151794826, 2.330271838263064, 2.3417510098801233, 2.3417510098801233, 2.3187926666460044, 2.2728759801777665, 2.3187926666460044, 2.3187926666460044, 2.249917636943648, 2.2613968085607072, 2.112167577538935, 2.112167577538935, 1.9744175181342214, 1.905542488431865, 1.8366674587295084, 1.8366674587295084, 1.767792429027152, 1.7448340857930331, 1.7563132574100926, 1.7563132574100926, 1.7218757425589142, 1.6759590560906763, 1.6644798844736173, 1.6644798844736173, 1.5956048547712605, 1.5611673399200823, 1.5611673399200823, 1.5267298250689039, 1.5496881683030228, 1.5956048547712605, 1.5956048547712605, 1.6300423696224389, 1.6185631980053794, 1.60708402638832, 1.60708402638832, 1.584125683154201, 1.584125683154201, 1.5956048547712605, 1.5956048547712605, 1.6415215412394983, 1.767792429027152, 1.928500831665984, 1.928500831665984, 2.1006884059218756, 2.20400095047541, 2.4106260395824797, 2.4106260395824797, 2.5942927854554307, 2.81239704617956, 2.973105448818392, 2.973105448818392, 3.248605567627818, 3.3519181121813526, 3.4207931418837094, 3.4207931418837094, 3.6274182309907794, 3.696293260693136, 3.765168290395492, 3.765168290395492, 3.7996058052466704, 3.914397521417265, 4.132501782141394, 4.132501782141394, 4.339126871248464, 4.442439415801998, 4.591668646823771, 4.591668646823771, 4.752377049462604, 5.01639799665497, 5.2689397722302775, 5.2689397722302775, 5.567398234273822, 6.0265650989562, 6.7727112540650625, 6.7727112540650625, 8.081336818409838, 8.781566287050463, 9.458837412456969, 9.458837412456969, 10.457525343141139, 11.984255168210042, 14.406360379409582, 14.406360379409582, 16.72515304605559, 20.042633643385763, 22.659884772075312, 22.659884772075312, 26.987532471706714, 31.074117567379872, 35.436202781862455, 35.436202781862455, 40.52147580821978, 42.90914350456814, 44.90651936593648, 44.90651936593648, 47.29418706228484, 48.671687656331976, 48.671687656331976, 50.32468836918853, 52.21875168600334, 55.40996139554586, 55.40996139554586, 57.568045659553036, 61.011797144670865, 62.82550626016625, 62.82550626016625, 66.07411182779407, 67.80746674197005, 69.2882798805707, 69.2882798805707, 69.56377999938013, 70.4476762138937, 70.94128059342727, 70.94128059342727, 71.1593848541514, 71.07903065283197, 71.74482260662143, 72.22694781453792, 72.22694781453792, 71.92848935249437, 71.82517680794084, 72.1465936132185, 72.1465936132185, 73.08788568581738, 73.83403184092624, 74.74088639867394, 74.74088639867394, 74.74088639867394, 74.36207373531097, 73.87994852739448, 73.87994852739448, 73.39782331947798, 73.4207816627121, 73.50113586403153, 73.50113586403153, 73.9029068706286, 74.0176985867992, 74.0176985867992, 73.85699018416037, 73.07640651420031, 72.60576047790089, 72.60576047790089, 71.88257266602614, 71.61855171883377, 71.17086402576845, 71.17086402576845, 70.6198637881496, 70.12625940861604, 69.66709254393368, 69.66709254393368, 69.07017561984658, 68.62248792678126, 68.27811277826947, 68.27811277826947, 67.40569573537296, 66.55623703571057, 66.00523679809172, 66.00523679809172, 65.82157005221876, 65.56902827664345, 65.19021561328049, 65.19021561328049, 65.58050744826052, 65.90192425353818, 65.92488259677229, 65.92488259677229]",70.30492716039768,4.5293252998963,None
reward-effort-pgACC-TUS,R88533/RE002,B_5,1,2024-08-15_16h50.58.062,2024-08-15 16:51:25,None,None,7,,,2.658517456054687,1,36,avoid,normal,heart,None,None,None,95,-60,-58,reject,370.7456979001872,None,-58,-278,"null",None,None,None
reward-effort-pgACC-TUS,R88533/RE002,B_5,1,2024-08-15_16h50.58.062,2024-08-15 16:51:25,None,None,7,,,2.658517456054687,1,37,avoid,normal,heart,None,None,None,60,-20,-19,reject,388.51407490018755,None,-19,-297,"null",None,None,None
reward-effort-pgACC-TUS,R88533/RE002,B_5,1,2024-08-15_16h50.58.062,2024-08-15 16:51:25,None,None,7,,,2.658517456054687,1,38,avoid,normal,heart,None,None,None,50,-80,-84,accept,395.6406760001555,success,0,-297,"[0.8379795280453382, 0.883896214513576, 0.9068545577476949, 0.9068545577476949, 0.8953753861306355, 0.9068545577476949, 0.9068545577476949, 0.9068545577476949, 0.9183337293647542, 0.9068545577476949, 0.9068545577476949, 1.021646273918289, 1.2971463927277154, 1.60708402638832, 1.60708402638832, 2.9960637920525106, 4.43096024418494, 6.566086164957993, 9.550670785393445, 9.550670785393445, 13.338797419023054, 20.042633643385763, 24.898323237401897, 24.898323237401897, 30.89045082150692, 37.3187869270602, 42.70251841546107, 42.70251841546107, 46.421770019388326, 50.96752197974386, 54.92783618762937, 54.92783618762937, 57.93537915129894, 60.33452601926436, 61.402088979650884, 61.402088979650884, 62.905860461485666, 64.86879880800282, 66.20038271558172, 66.20038271558172, 66.37257028983761, 66.30369526013526, 66.2922160885182, 66.2922160885182, 65.77565336575051, 65.4427573888558, 65.21317395651461, 65.21317395651461, 63.8012358476163, 62.894381289868605, 62.44669359680329, 62.44669359680329, 62.07936010505739, 61.72350578492855, 61.379130636416754, 61.08067217437322, 61.08067217437322, 60.98883880143674, 61.02327631628792, 61.103630517607336, 61.103630517607336, 61.011797144670865, 61.0003179730538, 61.02327631628792, 61.02327631628792, 61.011797144670865, 60.9429221149685, 60.59854696645672, 60.59854696645672, 60.449317735434946, 60.162338445008466, 59.38175477504842, 59.38175477504842, 58.440462702449544, 57.72875406219187, 57.16627465295595, 57.16627465295595, 56.71858695989064, 56.14462837903766, 55.46735725363116, 55.46735725363116, 54.98523204571466, 54.65233606881994, 54.58346103911757, 54.58346103911757, 54.744169441756405, 54.92783618762937, 54.92783618762937, 54.962273702480545, 54.98523204571466]",60.10437803749938,1.493949200026691,None
reward-effort-pgACC-TUS,R88533/RE002,B_5,1,2024-08-15_16h50.58.062,2024-08-15 16:51:25,None,None,7,,,2.658517456054687,1,39,avoid,normal,heart,None,None,None,90,-100,-93,accept,404.0561923000496,success,0,-297,"[0.8265003564282789, 0.7691044983429817, 0.7691044983429817, 0.7576253267259222, 0.7920628415771005, 0.7920628415771005, 0.7805836699600411, 0.7691044983429817, 0.8609378712794571, 0.8609378712794571, 0.8494586996623976, 0.8265003564282789, 0.8150211848112194, 0.8150211848112194, 0.7920628415771005, 1.1134796468547645, 2.284355151794826, 2.284355151794826, 4.155460125375513, 6.083960957041497, 8.735649600582224, 9.986879306841702, 9.986879306841702, 12.133484399231815, 16.65627801635323, 20.605113052621675, 20.605113052621675, 26.04624039910784, 31.234825970018704, 36.61855745841957, 36.61855745841957, 41.99080977520339, 44.99835273887296, 48.671687656331976, 48.671687656331976, 50.8986469500415, 54.34239843515933, 56.16758672227178, 56.16758672227178, 58.79631702257839, 61.011797144670865, 61.011797144670865, 64.18004851097926, 67.23350816111707, 69.59821751423131, 69.59821751423131, 71.2397390554708, 73.48965669241446, 73.48965669241446, 74.67201136897158, 76.12986616433813, 77.09411658017112, 77.62215847455586, 77.62215847455586, 78.97670072536886, 80.95111824350309, 80.95111824350309, 83.48801517087323, 84.59001564611093, 84.86551576492035, 86.41520393322337, 86.41520393322337, 88.40110062297467, 89.74416370217061, 89.74416370217061, 91.44308110149541, 92.18922725660427, 92.67135246452077, 93.46341530609786, 93.46341530609786, 94.28991566252614, 94.88683258661324, 94.93274927308147, 94.93274927308147, 95.41487448099797, 95.70185377142445, 97.2745002829616, 97.2745002829616, 97.88289637866573, 97.87141720704868, 97.44668785721748, 97.44668785721748, 98.07804229615576, 100.31648076148234, 101.31516869216651, 101.31516869216651, 102.15314822021185, 102.18758573506304, 101.9694814743389, 101.9694814743389, 101.69398135552947, 101.99243981757303, 101.99243981757303, 101.797293900083, 101.797293900083, 101.49883543803946, 101.63658549744416, 101.71693969876358, 101.71693969876358, 101.67102301229536, 101.2348144908471, 100.95931437203767, 100.95931437203767, 100.91339768556944, 100.86748099910119, 101.18889780437885, 101.18889780437885, 101.39552289348592, 101.05114774497414, 100.12133484399233, 100.12133484399233, 99.67364715092701, 99.63920963607583, 99.37518868888347, 99.478501233437, 99.478501233437, 99.35223034564935, 98.98489685390345, 99.21448028624464, 99.21448028624464, 99.35223034564935, 98.35354241496518]",98.19746271055901,2.034870400093496,None
reward-effort-pgACC-TUS,R88533/RE002,B_5,1,2024-08-15_16h50.58.062,2024-08-15 16:51:25,None,None,7,,,2.658517456054687,1,40,avoid,normal,heart,0.7,1.176141900010407,7,75,-100,-98,accept,413.4458314999938,success,0,-297,"[0.9298129009818137, 0.9757295874500514, 0.9298129009818137, 0.9298129009818137, 0.9298129009818137, 0.9068545577476949, 0.9068545577476949, 0.8953753861306355, 0.941292072598873, 0.941292072598873, 0.9757295874500514, 0.9872087590671107, 1.7448340857930331, 2.81239704617956, 2.81239704617956, 4.029189237587859, 7.071169716108608, 9.940962620373464, 9.940962620373464, 12.85667221110656, 18.573299676402154, 22.751718145011786, 22.751718145011786, 28.273199692817368, 34.08166053104944, 38.97178763991676, 38.97178763991676, 43.12724776529227, 47.40897877845544, 50.5313134582956, 50.5313134582956, 54.39979429324463, 57.47621228661656, 60.242692646327875, 60.242692646327875, 61.689068270077364, 62.63036034267624, 64.92619466608812, 64.92619466608812, 66.01671596970877, 66.87765384098823, 68.57657124031303, 68.57657124031303, 70.40175952742547, 73.35190663300975, 75.08526154718572, 75.08526154718572, 77.08263740855405, 77.84026273527999, 78.60936723362296, 80.13609705869187, 80.13609705869187, 81.74318108508018, 84.1997238111309, 84.1997238111309, 84.98030748109095, 85.34764097283684, 87.75826701241932, 89.60641364276589, 89.60641364276589, 89.82451790349002, 89.39978855365882, 89.39978855365882, 89.50310109821235, 89.89339293319239, 89.87043458995826, 88.9521008605935, 88.9521008605935, 88.63068405531584, 87.88453790020698, 87.10395423024694, 87.10395423024694, 86.8628916262887, 86.51851647777691, 85.18693257019801, 85.18693257019801, 83.3502651114685, 82.66151481444494, 82.90257741840318, 82.90257741840318, 83.66020274512911, 83.93570286393853, 83.8897861774703, 83.8897861774703, 83.63724440189499, 83.01736913457378, 82.51228558342318, 82.51228558342318, 82.15643126329432, 81.94980617418726, 81.6513477121437, 81.26105587716368, 81.26105587716368, 80.96259741512014, 80.56082640852307, 80.13609705869187, 80.13609705869187, 79.97538865605304, 79.75728439532891, 79.64249267915832, 79.64249267915832, 79.64249267915832, 79.72284688047773, 79.65397185077538, 79.65397185077538, 79.53918013460478]",83.24547138348055,1.7622751998715103,None
reward-effort-pgACC-TUS,R88533/RE002,B_5,1,2024-08-15_16h50.58.062,2024-08-15 16:51:25,None,None,7,,,2.658517456054687,1,41,avoid,normal,heart,None,None,None,100,-60,-72,accept,425.8946076000575,success,0,-297,"[0.9298129009818137, 0.883896214513576, 0.883896214513576, 0.8609378712794571, 0.8953753861306355, 0.8953753861306355, 0.9872087590671107, 1.021646273918289, 1.102000475237705, 1.102000475237705, 1.285667221110656, 1.7448340857930331, 3.0993763366060456, 3.0993763366060456, 4.901606280484376, 9.022628891008711, 11.892421795273568, 11.892421795273568, 16.85142393384324, 22.68284311530943, 28.227283006349136, 28.227283006349136, 33.93243130002767, 36.65299497327075, 42.16299734945928, 42.16299734945928, 45.44604043193828, 49.18825037909965, 51.656272276767425, 51.656272276767425, 56.66119110180534, 60.41488022058377, 62.73367288722977, 62.73367288722977, 68.59952958354715, 71.50376000266317, 75.0049073458663, 75.0049073458663, 77.26630415442702, 79.25220084417829, 81.43324345141959, 81.43324345141959, 83.23547339529792, 84.85403659330329, 85.85272452398746, 85.85272452398746, 87.57460026654638, 88.3322255932723, 89.11280926323234, 89.11280926323234, 89.98522630612885, 91.63822701898542, 92.30401897277486, 92.30401897277486, 93.5093319925661, 94.86387424337912, 97.36633365589807, 97.36633365589807, 99.99506395620467, 100.97079354365472, 101.67102301229536, 101.67102301229536, 102.25646076476538, 102.45160668225539, 103.03704443472543, 103.03704443472543, 103.62248218719546, 104.04721153702666, 104.38010751392137, 104.38010751392137, 104.79335769213552, 105.82648313767086, 106.07902491324617, 106.07902491324617, 105.76908727958556, 105.71169142150028, 105.99867071192676, 105.99867071192676, 106.89404609805739, 106.29712917397029, 105.90683733899029, 105.90683733899029, 105.3328787581373, 105.32139958652024, 105.32139958652024, 105.32139958652024, 105.35583710137143, 105.65429556341496, 105.53950384724438, 105.53950384724438, 104.25383662613372, 103.81762810468547, 103.28958621030073, 103.28958621030073, 103.0140860914913, 102.9337318901719, 103.12887780766191, 103.12887780766191, 103.08296112119366, 102.761544315916, 102.46308585387244, 102.46308585387244, 102.27941910799952, 102.40568999578716, 102.10723153374362, 102.10723153374362, 101.9120856162536, 101.98096064595596, 102.11871070536067, 102.26793993638243, 102.26793993638243, 102.15314822021185, 102.03835650404125, 101.82025224331713, 101.82025224331713, 101.55623129612476, 100.69529342484532]",103.41077615327427,1.9476052999962121,None
reward-effort-pgACC-TUS,R88533/RE002,B_5,1,2024-08-15_16h50.58.062,2024-08-15 16:51:25,None,None,7,,,2.658517456054687,1,42,avoid,normal,heart,None,None,None,75,-40,-41,accept,434.86505450005643,success,0,-297,"[0.9757295874500514, 0.9757295874500514, 1.0905213036206456, 1.0675629603865266, 1.285667221110656, 1.285667221110656, 2.0547717194536377, 2.6172511286895497, 3.1108555082231053, 3.1108555082231053, 3.4207931418837094, 4.775335392696722, 7.6106907821104, 7.6106907821104, 11.054442267228229, 15.887173518010247, 22.51065554105354, 22.51065554105354, 27.986220402390888, 35.34436940892598, 41.118392732306866, 41.118392732306866, 44.09149818112526, 47.70743724049898, 50.1065841084644, 50.1065841084644, 53.860273227242836, 56.12167003580354, 58.61265027670544, 58.61265027670544, 60.54115110837143, 61.689068270077364, 62.687756200761534, 62.687756200761534, 64.82288212153459, 67.18759147464883, 68.18627940533301, 68.18627940533301, 68.81763384427127, 69.5752591709972, 70.1377385802331, 70.1377385802331, 71.09050982444903, 70.7346555043202, 69.78188426010426, 69.78188426010426, 69.65561337231661, 70.59690544491548, 72.23842698615498, 72.23842698615498, 73.75367763960683, 74.39651125016215, 74.39651125016215, 76.0839494778699, 77.48440841515114, 78.68972143494238, 78.68972143494238, 79.8720761114995, 81.52507682435606, 84.21120298274796, 84.21120298274796, 85.73793280781686, 86.28893304543573, 85.88716203883864, 85.88716203883864, 85.4739118606245, 85.12953671211272, 85.23284925666626, 85.23284925666626, 85.11805754049566, 84.6244531609621, 84.01605706525795, 84.01605706525795, 83.86682783423618, 84.05049458010913, 84.07345292334325, 84.07345292334325, 84.59001564611093, 84.95734913785682, 84.95734913785682, 84.95734913785682, 84.55557813125975, 83.76351528968264, 83.45357765602203, 83.45357765602203, 82.7303898441473, 82.04163954712374, 81.513597652739, 81.513597652739, 80.98555575835427, 80.80188901248131, 80.80188901248131, 80.80188901248131, 80.64118060984248, 80.40011800588424, 80.17053457354305, 80.17053457354305, 80.41159717750129, 80.77893066924719, 80.92815990026897, 80.92815990026897, 80.87076404218368, 80.89372238541779, 81.12330581775898, 81.12330581775898, 80.91668072865191, 80.90520155703484, 81.38732676495134, 81.38732676495134, 81.8235352863996]",81.72966528624073,1.8278355000074953,None
reward-effort-pgACC-TUS,R88533/RE002,B_5,1,2024-08-15_16h50.58.062,2024-08-15 16:51:25,None,None,7,,,2.658517456054687,1,43,avoid,normal,heart,None,None,None,80,-80,-68,accept,444.55511400010437,success,0,-297,"[1.3430630791959532, 1.2627088778765372, 1.285667221110656, 1.285667221110656, 1.2512297062594777, 1.285667221110656, 1.285667221110656, 1.3086255643447748, 1.3315839075788938, 1.3201047359618343, 1.3201047359618343, 1.3775005940471314, 1.3775005940471314, 2.0318133762195187, 2.0318133762195187, 3.168251366308402, 5.372252316783813, 8.609378712794571, 8.609378712794571, 11.961296824975925, 16.415215412394982, 21.649717669774084, 21.649717669774084, 25.47228181825487, 30.155783838015115, 34.426035679561224, 34.426035679561224, 37.13512018118725, 41.94489308873515, 43.815998062315835, 43.815998062315835, 46.272540788366555, 48.44210422399078, 50.772376062253855, 50.772376062253855, 53.8143565407746, 56.7300661315077, 59.14069217109017, 59.14069217109017, 60.97735962981968, 62.561485312973886, 66.26925774528408, 66.26925774528408, 67.9337376297577, 69.13905064954893, 71.01015562312962, 71.01015562312962, 73.06492734258326, 74.60313633926923, 75.02786568910042, 75.02786568910042, 75.3722408376122, 76.29057456697696, 76.94488734914935, 77.33517918412936, 77.33517918412936, 77.90913776498233, 78.4830963458353, 78.27647125672824, 78.27647125672824, 78.37978380128177, 78.7126797781765, 79.17184664285888, 79.17184664285888, 80.00982617090422, 81.50211848112194, 82.38601469563551, 82.38601469563551, 82.35157718078435, 81.69726439861195, 81.6283893689096, 81.6283893689096, 83.38470262631968, 84.69332819066446, 85.39355765930509, 85.39355765930509, 86.36928724675514, 86.90880831275692, 87.76974618403639, 87.76974618403639, 88.24039222033583, 88.32074642165524, 87.62051695301462, 87.62051695301462, 86.8628916262887, 86.61034985071339, 87.03507920054459, 87.03507920054459, 87.03507920054459, 86.92028748437399, 86.35780807513808, 86.35780807513808, 86.03639126986042, 85.60018274841215, 84.94586996623977, 84.63593233257917, 84.63593233257917, 84.81959907845211, 84.88847410815447, 84.63593233257917, 84.63593233257917, 84.22268215436503, 83.87830700585323, 83.39618179793675, 83.39618179793675, 83.39618179793675, 83.78647363291677, 84.47522392994034, 84.47522392994034, 84.4867031015574, 84.61297398934504, 84.85403659330329, 84.85403659330329]",83.57777852925581,1.8833228000439703,None
reward-effort-pgACC-TUS,R88533/RE002,B_5,1,2024-08-15_16h50.58.062,2024-08-15 16:51:25,None,None,7,,,2.658517456054687,1,44,avoid,normal,heart,None,None,None,90,-60,-55,accept,454.72560770018026,success,0,-297,"[1.5726465115371415, 1.4922923102177255, 1.5382089966859633, 1.5382089966859633, 1.5382089966859633, 1.584125683154201, 1.584125683154201, 1.60708402638832, 1.7103965709418547, 2.20400095047541, 2.20400095047541, 2.81239704617956, 3.891439178183146, 6.118398471892675, 9.963920963607583, 9.963920963607583, 13.292880732554819, 18.929153996531, 25.67890690736194, 25.67890690736194, 31.074117567379872, 35.34436940892598, 41.30205947817982, 41.30205947817982, 44.10297735274232, 47.43193712168956, 49.36043795335554, 49.36043795335554, 51.58739724706507, 54.101335831201084, 55.57066979818469, 55.57066979818469, 57.02852459355123, 58.58969193347132, 60.54115110837143, 60.54115110837143, 62.1597143063768, 65.0754238971099, 68.63396709839832, 68.63396709839832, 71.42340580134376, 74.53426130956686, 76.91044983429816, 76.91044983429816, 77.69103350425821, 79.0800132699224, 80.22793043162835, 80.22793043162835, 81.86945197286785, 83.51097351410733, 84.69332819066446, 85.30172428636861, 85.30172428636861, 86.151182986031, 87.45980855037578, 88.72251742825232, 88.72251742825232, 91.30533104209069, 92.17774808498721, 93.29122773184197, 93.29122773184197, 94.54245743810145, 95.2082493918909, 95.86256217406329, 95.86256217406329, 97.14822939517393, 99.12264691330816, 101.78581472846595, 101.78581472846595, 102.64675259974541, 103.39289875485427, 104.6326492894967, 104.6326492894967, 105.13773284064729, 106.07902491324617, 106.54967094954561, 106.54967094954561, 106.28565000235324, 106.42340006175797, 105.2525245568179, 105.2525245568179, 103.97833650732431, 103.51916964264191, 103.79466976145136, 103.79466976145136, 103.93241982085605, 103.84058644791958, 103.56508632911017, 103.56508632911017, 103.07148194957661, 102.81894017400131, 102.37125248093596, 102.37125248093596, 102.01539816080714, 102.01539816080714, 101.64806466906124, 101.64806466906124, 100.39683496280176, 98.46833413113578, 96.99900016415216, 96.99900016415216, 95.35747862291267, 95.23120773512501, 95.33452027967854, 95.33452027967854, 95.35747862291267, 95.18529104865678, 94.85239507176205, 94.85239507176205, 95.02458264601795, 95.05902016086912, 95.10493684733736, 95.10493684733736, 95.6903745998074, 97.48112537206866]",99.04932833330246,1.9106671002227813,None
reward-effort-pgACC-TUS,R88533/RE002,B_5,1,2024-08-15_16h50.58.062,2024-08-15 16:51:25,None,None,7,,,2.658517456054687,1,45,avoid,normal,heart,None,None,None,90,-60,-57,accept,464.8220121001359,success,0,-297,"[1.366021422430072, 1.366021422430072, 1.3545422508130125, 1.3545422508130125, 1.3545422508130125, 1.4922923102177255, 2.192521778858351, 2.9960637920525106, 2.9960637920525106, 3.558543201288423, 4.798293735930841, 7.415544864620391, 7.415544864620391, 10.26237942565113, 15.359131623625515, 20.409967135131662, 20.409967135131662, 26.666115666429054, 31.85470123733991, 35.91832798977895, 35.91832798977895, 42.071163976522804, 44.88356102270236, 48.32731250782019, 48.32731250782019, 50.852730263573264, 55.16889879158761, 57.84354577836246, 57.84354577836246, 61.11510968922439, 62.79106874531507, 67.06132058686119, 67.06132058686119, 69.5752591709972, 74.02917775841625, 76.04951196301872, 76.04951196301872, 77.56476261647055, 79.49326344813655, 81.1692225042272, 81.1692225042272, 82.43193138210376, 84.36043221376973, 84.72776570551564, 84.72776570551564, 84.78516156360094, 84.92291162300565, 84.796640735218, 84.796640735218, 84.86551576492035, 85.63462026326333, 86.66774570879868, 86.66774570879868, 88.18299636225052, 88.74547577148644, 88.86026748765703, 88.86026748765703, 89.13576760646646, 90.71989328962066, 92.09739388366779, 92.09739388366779, 93.48637364933198, 95.03606181763502, 96.02327057670212, 96.02327057670212, 96.59722915755509, 98.42241744466753, 99.97210561297057, 100.71825176807943, 100.71825176807943, 101.36108537863475, 101.3496062070177, 101.36108537863475, 101.36108537863475, 101.3496062070177, 101.46439792318829, 101.15446028952768, 101.15446028952768, 101.15446028952768, 100.71825176807943, 99.94914726973644, 99.94914726973644, 99.92618892650232, 98.62904253377461, 97.65331294632456, 97.65331294632456, 96.83829176151335, 95.86256217406329, 95.2082493918909, 95.2082493918909, 94.07181140180201, 92.63691494966957, 91.89076879456071, 91.89076879456071, 91.77597707839013, 91.83337293647543, 92.02851885396544, 92.02851885396544, 92.06295636881661, 92.06295636881661, 92.18922725660427, 92.18922725660427, 92.43028986056252, 92.91241506847902, 92.94685258333018, 92.94685258333018, 93.40601944801257, 93.27974856022492, 93.23383187375669, 93.21087353052255, 93.21087353052255, 93.64708205197081]",94.86868808954115,1.8701780999545008,None
reward-effort-pgACC-TUS,R88533/RE002,B_5,1,2024-08-15_16h50.58.062,2024-08-15 16:51:25,None,None,7,,,2.658517456054687,1,46,avoid,normal,heart,None,None,None,90,-40,-40,reject,473.79053770005703,None,-40,-337,"null",None,None,None
reward-effort-pgACC-TUS,R88533/RE002,B_5,1,2024-08-15_16h50.58.062,2024-08-15 16:51:25,None,None,7,,,2.658517456054687,1,47,avoid,normal,heart,None,None,None,50,-20,-23,accept,480.73932900000364,success,0,-337,"[1.3545422508130125, 1.3545422508130125, 1.3775005940471314, 1.5496881683030228, 1.5496881683030228, 2.777959531328382, 3.788126633629611, 5.096752197974386, 5.096752197974386, 8.150211848112193, 10.42308782828996, 10.42308782828996, 14.716298013070187, 19.950800270449285, 23.47490595688653, 23.47490595688653, 27.435220164772034, 33.54213946504765, 36.343057339610155, 36.343057339610155, 41.78418468609632, 43.770081375847596, 45.721540550747704, 49.05050031969493, 49.05050031969493, 52.39093926025923, 57.510649801467736, 57.510649801467736, 61.16102637569263, 66.55623703571057, 69.43750911159248, 69.43750911159248, 72.50244793334734, 73.23711491683915, 72.28434367262322, 72.28434367262322, 70.59690544491548, 69.50638414129484, 68.6110087551642, 68.6110087551642, 68.01409183107711, 66.61363289379587, 65.64938247796287, 65.64938247796287, 64.89175715123694, 63.410944012636286, 62.36633939548387, 62.36633939548387, 61.895693359184435, 61.51688069582148, 61.26433892024616, 61.26433892024616, 60.93144294335144, 60.7477761974785, 60.449317735434946, 60.449317735434946, 60.300088504413175, 60.41488022058377, 60.65594282454202, 60.65594282454202, 60.97735962981968, 61.0577138311391, 61.06919300275616, 61.06919300275616, 61.06919300275616, 61.08067217437322, 61.252859748629106, 61.252859748629106, 61.344693121565584, 61.41356815126794, 61.356172293182645, 61.356172293182645, 61.0003179730538, 60.64446365292496, 60.047546728837865, 60.047546728837865, 59.58837986415549, 58.96850459683428, 58.5093377321519, 58.5093377321519, 57.86650412159658, 57.648399860872445, 57.648399860872445, 57.648399860872445]",62.158585207529214,1.3895390999969095,None
reward-effort-pgACC-TUS,R88533/RE002,B_5,1,2024-08-15_16h50.58.062,2024-08-15 16:51:25,None,None,7,,,2.658517456054687,1,48,avoid,normal,heart,None,None,None,85,-60,-59,accept,489.0623811001424,success,0,-337,"[1.3545422508130125, 1.3086255643447748, 1.3086255643447748, 1.3201047359618343, 1.3430630791959532, 1.3430630791959532, 1.366021422430072, 1.5496881683030228, 2.0088550329854, 2.0088550329854, 3.3519181121813526, 4.890127108867317, 8.173170191346312, 8.173170191346312, 12.317151145104766, 17.597570088952104, 23.417510098801234, 23.417510098801234, 28.422428923839142, 35.3673277521601, 40.69366338247567, 40.69366338247567, 44.963915224021775, 48.41914588075667, 51.25450127017035, 51.25450127017035, 56.006878319632946, 59.23252554402665, 61.97604756050386, 61.97604756050386, 65.5575491050264, 69.64413420069955, 74.06361527326743, 74.06361527326743, 77.70251267587527, 80.71005563954485, 84.4522655867062, 84.4522655867062, 87.88453790020698, 90.05410133583122, 92.24662311468957, 92.24662311468957, 93.67004039520494, 94.53097826648438, 95.88552051729741, 95.88552051729741, 96.52835412785274, 96.66610418725745, 97.26302111134454, 97.26302111134454, 97.34337531266395, 97.02195850738629, 95.79368714436093, 95.79368714436093, 95.65593708495621, 95.55262454040268, 94.65724915427204, 94.39322820707969, 94.39322820707969, 94.12920725988731, 93.65856122358788, 93.65856122358788, 93.22235270213962, 91.93668548102896, 90.66249743153536, 89.58345529953178, 89.58345529953178, 89.10133009161528, 89.23908015101999, 90.0311429925971, 90.0311429925971, 89.81303873187296, 89.83599707510709, 90.53622654374772, 90.53622654374772, 91.36272690017599, 90.29516393978946, 89.81303873187296, 89.81303873187296, 89.95078879127767, 90.88060169225949, 91.557872817666, 91.557872817666, 91.69562287707072, 90.84616417740831, 91.47751861634659, 91.47751861634659, 91.46603944472952, 90.55918488698183, 90.90356003549361, 90.90356003549361, 91.77597707839013, 92.44176903217958, 92.67135246452077, 92.67135246452077, 92.21218559983838, 91.78745625000718, 91.70710204868777]",92.17774808498723,1.629798100097105,None
reward-effort-pgACC-TUS,R88533/RE002,B_5,1,2024-08-15_16h50.58.062,2024-08-15 16:51:25,None,None,7,,,2.658517456054687,1,49,avoid,normal,heart,None,None,None,60,-80,-85,accept,498.06287820008583,success,0,-337,"[1.2627088778765372, 1.3086255643447748, 1.3545422508130125, 1.3545422508130125, 1.4004589372812504, 1.8366674587295084, 3.3404389405642934, 3.3404389405642934, 4.339126871248464, 5.360773145166753, 5.360773145166753, 7.266315633598618, 10.469004514758199, 15.841256831542012, 15.841256831542012, 20.85765482819698, 26.826824069067882, 34.41455650794417, 34.41455650794417, 39.95899639898387, 45.30829037253356, 49.13085452101435, 49.13085452101435, 54.48014849456404, 57.43029560014832, 60.805172055563794, 62.26302685093034, 62.26302685093034, 64.69661123374694, 67.01540390039294, 68.15184189048182, 68.15184189048182, 68.46177952414243, 68.4388211809083, 68.381425322823, 68.381425322823, 68.3240294647377, 68.11740437563064, 67.29090401920237, 67.29090401920237, 67.00392472877587, 66.85469549775411, 66.42996614792291, 66.42996614792291, 65.31648650106816, 64.26040271229868, 64.0882151380428, 64.0882151380428, 64.11117348127691, 63.78975667599924, 63.617569101743356, 63.8012358476163, 63.8012358476163, 64.82288212153459, 65.61494496311168, 65.61494496311168, 66.24629940204996, 66.87765384098823, 67.3942165637559, 67.3942165637559, 67.89930011490651, 68.3240294647377, 68.4962170389936, 68.4962170389936, 68.3010711215036, 68.381425322823, 68.36994615120595, 68.36994615120595, 68.22071692018417, 68.09444603239653, 67.63527916771415, 67.63527916771415, 67.26794567596825, 66.82025798290293, 66.54475786409351, 66.54475786409351, 66.63659123702999, 66.55623703571057, 66.33813277498643, 66.33813277498643, 66.40700780468879, 66.28073691690113, 66.08559099941112, 66.08559099941112, 66.05115348455995, 66.03967431294289]",66.31036058559035,1.4327142001129687,None
reward-effort-pgACC-TUS,R88533/RE002,B_5,1,2024-08-15_16h50.58.062,2024-08-15 16:51:25,None,None,7,,,2.658517456054687,1,50,avoid,normal,heart,0.5,1.3222182001918554,6,65,-20,-20,accept,507.60250600008294,success,0,-337,"[1.3201047359618343, 1.3315839075788938, 1.3315839075788938, 1.3315839075788938, 1.285667221110656, 1.2971463927277154, 1.3315839075788938, 1.3315839075788938, 1.503771481834785, 1.882584145197746, 2.8812720758819164, 2.8812720758819164, 4.706460362994366, 7.00229468640625, 10.572317059311734, 10.572317059311734, 14.280089491621927, 19.07838322755277, 24.209572940378337, 24.209572940378337, 28.296158036051487, 34.31124396339063, 37.938662194381415, 37.938662194381415, 43.620852144825825, 47.54672883786015, 49.93439653420852, 49.93439653420852, 54.02098162988167, 56.48900352754944, 59.11773382785606, 59.11773382785606, 60.72481785424437, 61.82681832948208, 65.14429892681225, 65.14429892681225, 68.25515443503537, 69.93111349112604, 71.75630177823848, 71.75630177823848, 72.83534391024207, 73.67332343828741, 73.67332343828741, 74.41946959339627, 74.4998237947157, 75.02786568910042, 75.41815752408044, 75.41815752408044, 76.26761622374283, 76.81861646136169, 76.81861646136169, 77.08263740855405, 77.071158236937, 76.95636652076641, 76.95636652076641, 76.47424131284991, 75.61330344157045, 75.55590758348517, 75.55590758348517, 75.03934486071748, 74.64905302573746, 74.4424279366304, 74.4424279366304, 74.23580284752333, 73.75367763960683, 73.75367763960683, 73.70776095313859, 73.39782331947798, 73.21415657360502, 73.21415657360502, 73.13380237228561, 72.83534391024207, 72.3187811874744, 71.19382236900258, 71.19382236900258, 70.90684307857609, 70.70021798946901, 70.49359290036195, 70.49359290036195, 70.14921775185017, 70.06886355053075, 70.09182189376487, 70.09182189376487, 70.26400946802076, 70.47063455712784, 70.27548863963781, 70.27548863963781, 70.21809278155253, 70.74613467593726, 70.74613467593726, 71.41192662972671, 71.2971349135561, 70.91832225019314, 70.91832225019314, 70.99867645151257]",72.5163340280454,1.5681231999769807,None
