expName,curec_ID,trial_schedule,session_nr,date,end_date,participant,age,gender,max_strength,block_number,trial_count,block_action_type,block_global_effort_state,block_attention_focus,trial_rating,trial_effort,trial_outcome_level,trial_actual_outcome,response,response_time,result,points,cumulative_points,effort_trace,effort_expended,effort_response_time,final_bonus_payment
reward-effort-pgACC-TUS,R88533/RE002,A_1,1,2024-07-10_11h10.14.598,None,999,28,f,2.989898681640625,1,1,approach,normal,heart,None,50,100,95,accept,2.4519678000360727,success,95,95,"[1.1431720984352831, 1.0819307360191073, 1.102344523491166, 1.102344523491166, 1.132965204699254, 1.1227583109632244, 1.1125514172271953, 1.132965204699254, 1.1125514172271953, 1.102344523491166, 1.1125514172271953, 1.0921376297551366, 1.0921376297551366, 1.0921376297551366, 1.1125514172271953, 1.1125514172271953, 1.1227583109632244, 1.132965204699254, 1.102344523491166, 1.1227583109632244, 1.0921376297551366, 1.0921376297551366, 1.1125514172271953, 1.0921376297551366, 1.1125514172271953, 1.102344523491166, 1.1227583109632244, 1.102344523491166, 1.132965204699254, 1.1227583109632244, 1.1227583109632244, 1.1227583109632244, 1.132965204699254, 1.1125514172271953, 1.102344523491166, 1.0921376297551366, 1.102344523491166, 1.0921376297551366, 1.0921376297551366, 1.071723842283078, 1.0819307360191073, 1.1125514172271953, 1.1227583109632244, 1.1227583109632244, 1.132965204699254, 1.1227583109632244, 1.132965204699254, 1.1125514172271953, 1.071723842283078, 1.0921376297551366, 1.0921376297551366, 1.0921376297551366, 1.0921376297551366, 1.071723842283078, 1.1227583109632244, 1.1227583109632244, 1.1227583109632244, 1.1125514172271953, 1.132965204699254, 1.1125514172271953, 1.1125514172271953, 1.1125514172271953, 1.0819307360191073, 1.102344523491166, 1.102344523491166, 1.102344523491166, 1.0921376297551366, 1.1125514172271953, 1.102344523491166, 1.0819307360191073, 1.1431720984352831, 1.2146203545874885, 1.5514478478764557, 1.8984822349014525, 2.1332407908301265, 2.398620027966889, 2.776275096199974, 2.959999183448501, 3.1845508456411458, 3.307033570473498, 3.664274851234524, 3.9194471946352567, 4.123585069355843, 4.3175160503404, 4.480826350116869, 4.582895287477163, 4.746205587253631, 5.001377930654364, 5.144274442958775, 5.215722699110979, 5.338205423943331, 5.348412317679361, 5.174895124166863, 4.919722780766129, 4.776826268461718, 4.787033162197749, 4.909515887030101, 5.35861921141539, 6.501791309850673, 7.553101364661692, 8.053239157727129, 8.461514907168302, 8.808549294193298, 9.07392853133006, 9.07392853133006, 9.870066242740346, 10.257928204709462, 10.778479785246956, 10.972410766231514, 10.921376297551365, 10.604962591734457, 10.390617823277843, 10.737652210302837, 11.421514090616803, 12.003307033570474, 13.075030875853551, 14.207996080552807, 14.759168342298388, 14.983720004491033, 15.106202729323384, 15.218478560419706, 15.524685372500588, 15.687995672277054, 15.739030140957203, 15.881926653261614, 16.749512620824106, 17.8620640380513, 18.658201749461586, 19.842201422840986, 21.27116654588509, 23.94537270472477, 25.945923876986516, 29.130474722627664, 31.38619823829014, 33.386749410551886, 37.24495524277096, 38.2656446163739, 39.16385126514448, 39.87833382666653, 40.694885325548874, 41.450195462015046, 42.98122952241944, 44.50205668908781, 45.69626325620324, 47.94177987812969, 49.7586069631429, 50.78950323048187, 52.187847672317886, 54.04550233227522, 54.65791595643697, 55.24991579312668, 55.484674349055354, 55.7806742674002, 56.566605085074464, 58.08743225174283, 58.47529421371193, 58.485501107447966, 58.015983995590624, 56.71970849111489, 55.84191562981638, 55.372398517959034, 55.372398517959034, 54.92329519357374, 54.60688148775683, 54.290467781939924, 54.04550233227522, 53.99446786359508, 53.963847182386985, 54.076123013483304, 54.361916038092126, 54.79060557500536, 55.392812305431086, 56.280812060465635, 58.31198391393547, 59.57763873720311, 61.057638328927354, 61.99667255264205, 62.1497759586825, 62.1497759586825, 62.97653435130087, 64.19115470588835, 65.01791309850672, 65.11998203586703, 64.68108560521777, 64.48715462423321, 64.38508568687291, 64.22177538709644, 63.44605146315821, 63.91556857501557, 63.762465168975126, 62.5682586018597, 62.03750012758618, 62.01708634011411]",58.114928373643984,4.109775899909437,None
reward-effort-pgACC-TUS,R88533/RE002,A_1,1,2024-07-10_11h10.14.598,None,999,28,f,2.989898681640625,1,2,approach,normal,heart,None,70,40,38,reject,2.57443310006056,None,0,95,"null",None,None,None
reward-effort-pgACC-TUS,R88533/RE002,A_1,1,2024-07-10_11h10.14.598,None,999,28,f,2.989898681640625,1,3,approach,normal,heart,None,60,100,119,accept,1.3674197000218555,success,119,214,"[1.2758617170036644, 1.2962755044757228, 1.3166892919477815, 1.3473099731558695, 1.4493789105161625, 1.6126892102926318, 1.7249650413889543, 1.8474477662213058, 2.020964959733804, 2.245516621926449, 2.4904820715911526, 2.898757821032325, 3.521378338930113, 4.113378175619813, 4.113378175619813, 5.470895042511712, 9.614893899339615, 9.614893899339615, 12.921927469813113, 20.41378747205863, 23.077786737162278, 26.946199463117388, 31.37599134455411, 37.42867933001949, 40.49074745082829, 44.29791881436722, 46.206607943004705, 50.01377930654364, 53.03501985240832, 55.1172261745583, 57.17901870923622, 60.975983179039126, 62.12936217121043, 62.282465577250875, 62.85405162646852, 64.35446500566484, 66.12025762199791, 66.0896369407898, 66.0896369407898, 64.762740755106, 63.895154787543504, 63.895154787543504, 63.91556857501557, 64.88522347993835, 65.9467404284854, 66.34480928419055, 66.34480928419055, 66.45708511528686, 66.68163677747951, 67.14094699560083, 68.71280863094934, 69.30480846763905, 69.5701877047758, 69.79473936696846, 69.47832566115154, 69.19253263654272, 68.92715339940597, 68.77404999336551, 68.76384309962948, 68.58011901238096, 68.42701560634052, 68.30453288150818, 67.94729160074714, 67.32467108284935, 67.24301593296113, 67.19198146428097, 67.00825737703244, 66.8143263960479, 66.57956784011921, 66.01818868463761, 65.30370612311556, 65.34453369805966, 65.44660263541996, 65.7732232349729, 65.814050809917, 65.46701642289202, 65.46701642289202, 65.90591285354128]",66.18383806422858,1.6880416000494733,None
reward-effort-pgACC-TUS,R88533/RE002,A_1,1,2024-07-10_11h10.14.598,None,999,28,f,2.989898681640625,1,4,approach,normal,heart,None,80,80,74,accept,1.3734103000024334,success,74,288,"[1.3166892919477815, 1.2758617170036644, 1.2962755044757228, 1.2962755044757228, 1.2860686107396937, 1.2962755044757228, 1.3064823982117522, 1.459585804252192, 1.7045512539168954, 1.78620640380513, 1.78620640380513, 2.153654578302185, 2.694619946311739, 3.5519990201382017, 5.215722699110979, 5.215722699110979, 8.073652945199187, 10.257928204709462, 13.452685944086637, 17.821236463107184, 17.821236463107184, 20.638339134251275, 24.098476110765212, 29.406060853500453, 32.30481867453278, 37.9900584855011, 40.86840251906138, 44.26729813315913, 47.52329723495249, 47.52329723495249, 51.27943412981127, 53.52495075173772, 54.67832974390904, 55.87253631102447, 58.18950118910312, 60.924948710358976, 61.94563808396191, 63.0581895011891, 63.0581895011891, 63.782878956447185, 65.01791309850672, 66.0896369407898, 67.0592918457126, 67.82480887591478, 68.46784318128464, 69.20273953027875, 69.61101527971992, 70.42756677860227, 70.64191154705888, 70.98894593408389, 72.63225582558461, 73.85708307390811, 75.14315168464782, 75.50039296540884, 76.10259969583457, 76.82728915109264, 76.82728915109264, 79.57294356608453, 79.57294356608453, 80.6752880895757, 81.99197738152348, 82.80852888040583, 82.80852888040583, 83.60466659181611, 84.17625264103376, 84.60494217794698, 85.92163146989476, 85.92163146989476, 86.9117001622896, 88.01404468578077, 88.18756187929327, 88.18756187929327, 88.16714809182122, 89.0653547405918, 89.30011329652046, 89.30011329652046, 88.85100997213517, 88.94287201575945, 89.17763057168811, 89.33073397772856, 89.2388719341043, 89.2388719341043, 89.2388719341043, 89.27969950904841, 89.28990640278444, 89.0653547405918, 88.88163065334327, 88.97349269696753, 88.92245822828738, 88.92245822828738, 88.66728588488665, 88.9632858032315, 88.98369959070355, 88.81018239719106, 88.33045839159769, 88.28963081665357, 88.28963081665357, 87.8507343860043, 87.7078378736999, 88.06507915446092, 88.41211354148591, 88.19776877302931, 88.19776877302931, 87.39142416788299, 86.98314841844181, 86.44218305043226, 86.25845896318374, 86.25845896318374, 86.02370040725505, 85.36025231441316, 85.07445928980434]",86.56950061966587,2.0848115000408143,None
reward-effort-pgACC-TUS,R88533/RE002,A_1,1,2024-07-10_11h10.14.598,None,999,28,f,2.989898681640625,1,5,approach,normal,heart,None,70,60,71,accept,1.7524326000129804,success,71,359,"[1.1635858859073418, 1.235034142059547, 1.235034142059547, 1.2146203545874885, 1.2452410357955763, 1.2452410357955763, 1.2554479295316057, 1.2656548232676348, 1.4085513355720454, 1.4085513355720454, 1.7045512539168954, 1.8984822349014525, 2.051585640941892, 2.6435854776315924, 2.6435854776315924, 3.439723189041879, 4.501240137588928, 7.216273871372724, 7.216273871372724, 9.206618149898443, 11.196962428424158, 14.259030549232952, 17.89268471925939, 17.89268471925939, 20.179028916129955, 22.7715799250814, 24.414889816582118, 26.935992569381362, 26.935992569381362, 29.681646984373245, 31.25350861972176, 32.427301399365135, 34.47888704030702, 34.47888704030702, 37.07143804925847, 38.8576444530636, 40.26619578863564, 41.2256437998224, 41.2256437998224, 43.062884672307675, 44.491849795351776, 46.135159686852504, 46.135159686852504, 48.87060720810836, 51.075296255090684, 51.075296255090684, 53.95364028865095, 55.107019280822264, 56.15832933563328, 59.32246639380237, 59.32246639380237, 61.180121053759706, 62.374327620875135, 63.66039623161483, 63.66039623161483, 65.02811999224276, 65.18122339828321, 65.08936135465893, 65.08936135465893, 65.27308544190747, 65.7732232349729, 66.69184367121554, 66.94701601461627, 66.94701601461627, 67.47777448888979, 68.36577424392435, 68.9067396119339, 68.9067396119339, 69.19253263654272, 69.55998081103978, 70.32549784124198, 70.32549784124198, 70.8562563155155, 72.3872903759199, 73.95915201126842, 73.95915201126842, 75.20439304706399, 75.36770334684046, 75.44935849672869, 76.49046165780368, 76.49046165780368, 77.25597868800588, 77.90921988711176, 78.68494381104998, 78.68494381104998, 78.92990926071468, 79.10342645422719, 79.05239198554705, 79.02177130433896, 79.02177130433896, 78.96052994192277, 78.60328866116176, 78.3072887428169, 78.3072887428169, 78.49101283006542, 78.56246108621762, 78.56246108621762, 78.06232329315219, 78.06232329315219, 77.87859920590367, 77.70508201239117, 77.42949588151838, 77.18453043185367, 77.18453043185367, 76.80687536362059, 76.62315127637206, 76.57211680769191, 76.57211680769191, 76.70480642626029, 76.79666846988455, 76.7762546824125, 76.74563400120441, 76.74563400120441, 76.89873740724485, 76.98039255713309, 76.92935808845294, 76.73542710746838, 76.73542710746838, 76.56190991395589, 76.70480642626029, 77.0212201320772, 77.11308217570146, 77.11308217570146]",75.54698249649428,2.0459395999787375,None
reward-effort-pgACC-TUS,R88533/RE002,A_1,1,2024-07-10_11h10.14.598,None,999,28,f,2.989898681640625,1,6,approach,normal,heart,None,50,80,59,accept,1.77256099996157,success,59,418,"[1.132965204699254, 1.1125514172271953, 1.1431720984352831, 1.132965204699254, 1.1533789921713125, 1.2146203545874885, 1.2860686107396937, 1.5820685290845435, 2.1026201096220385, 2.1026201096220385, 2.5517234340073287, 3.1028956957529115, 3.9500678758433447, 5.756688067120534, 9.165790574954325, 9.165790574954325, 11.543996815449155, 15.279719922835882, 19.883028997785104, 23.394200442979187, 26.92578567564533, 31.141232788625437, 35.121921345676874, 35.121921345676874, 38.6841272595511, 41.38895409959887, 44.26729813315913, 46.982331866942936, 50.922192849050255, 53.15750257724067, 54.219019525787715, 54.60688148775683, 54.60688148775683, 55.066191705878154, 55.87253631102447, 56.423708572770046, 58.107846039214884, 58.107846039214884, 59.36329396874649, 59.64908699335532, 59.56743184346708, 58.87336306941708, 58.87336306941708, 57.79143233339797, 57.781225439661945, 58.29157012646341, 58.80191481326488, 58.90398375062518, 59.06729405040164, 59.077500944137675, 58.98563890051341, 58.7406734508487, 58.7406734508487, 59.34288018127444, 60.169638573892804, 61.537362334520736, 61.537362334520736, 62.27225868351485, 62.21101732109867, 62.282465577250875, 62.59887928306779, 63.109223969869255, 63.109223969869255, 63.43584456942219, 63.9972237249038, 64.37487879313689, 63.91556857501557, 63.91556857501557, 62.83363783899646, 61.99667255264205, 62.01708634011411, 62.047707021322196, 62.19060353362661, 62.221224214834706, 62.558051708123664, 62.57846549559572, 62.57846549559572, 62.57846549559572, 62.50701723944352, 62.660120645483964, 63.17046533228543, 63.44605146315821, 63.58894797546263, 63.58894797546263, 63.241913588437626]",60.30197005583886,1.5607074999716133,None
reward-effort-pgACC-TUS,R88533/RE002,A_1,1,2024-07-10_11h10.14.598,None,999,28,f,2.989898681640625,1,7,approach,normal,heart,None,80,20,23,reject,1.109025599900633,None,0,418,"null",None,None,None
reward-effort-pgACC-TUS,R88533/RE002,A_1,1,2024-07-10_11h10.14.598,None,999,28,f,2.989898681640625,1,8,approach,normal,heart,None,85,100,98,accept,1.6530656999675557,success,98,516,"[0.9696549049227848, 1.0308962673389608, 1.1942065671154296, 1.367723760627928, 1.6126892102926318, 2.5925510089514456, 3.0008267583926185, 3.521378338930113, 4.30730915660437, 7.093791146540374, 9.247445724842558, 11.360272728200627, 15.92275422820573, 19.06647749890276, 21.659028507854206, 28.507854204729878, 31.610749900482787, 34.938197258428346, 38.561644534718745, 42.55253998550621, 45.47171159401059, 49.676951813254675, 53.463709389321544, 55.02536413093403, 57.9037081644943, 61.27198309738397, 62.74177579537219, 64.68108560521777, 66.76329192736775, 68.56991211864494, 69.69267042960816, 70.89708389045961, 71.83611811417433, 73.07115225623386, 73.53046247435519, 74.51032427301399, 75.43915160299267, 76.19446173945883, 76.88853051350883, 78.32770253028896, 80.29763302134262, 81.76742571933083, 82.65542547436539, 83.1147356924867, 83.34949424841538, 84.15583885356169, 84.79887315893154, 85.81956253253448, 85.99307972604697, 87.77928612985211, 89.03473405938371, 89.61652700233738, 90.5657681197881, 90.87197493186898, 91.12714727526972, 91.41294029987854, 91.90287119920795, 92.20907801128882, 92.1988711175528, 91.93349188041603, 92.0661814989844, 92.1682504363447, 92.38259520480132, 92.33156073612118, 92.4438365672175, 92.63776754820205, 92.90314678533882, 92.8929398916028, 92.8929398916028, 92.90314678533882, 93.22976738489176, 93.18893980994764, 93.31142253478, 93.29100874730794, 93.40328457840425, 93.36245700346014, 93.32162942851602, 93.16852602247559, 93.08687087258734, 93.08687087258734, 93.01542261643515, 93.21956049115573, 93.21956049115573, 93.02562951017117, 93.01542261643515, 93.27059495983588, 93.27059495983588, 93.34204321598808]",90.93104461476688,1.977042100043036,None
reward-effort-pgACC-TUS,R88533/RE002,A_1,1,2024-07-10_11h10.14.598,None,999,28,f,2.989898681640625,1,9,approach,normal,heart,None,55,20,20,reject,1.1659637000411749,None,0,516,"null",None,None,None
reward-effort-pgACC-TUS,R88533/RE002,A_1,1,2024-07-10_11h10.14.598,None,999,28,f,2.989898681640625,1,10,approach,normal,heart,None,75,60,67,accept,1.581935100024566,success,67,583,"[1.1839996733794005, 1.3371030794198402, 1.5004133791963092, 1.5412409541404264, 1.5412409541404264, 1.561654741612485, 1.6024823165566022, 1.6024823165566022, 1.8678615536933645, 2.020964959733804, 2.1332407908301265, 2.1332407908301265, 2.245516621926449, 2.429240709174977, 2.7456544149918853, 3.164137058169087, 3.164137058169087, 3.6030334888183484, 4.16441264429996, 4.991171036918335, 7.951170220366836, 7.951170220366836, 9.53323874945138, 11.972686352362386, 16.494340277423372, 16.494340277423372, 19.362477417247607, 22.64909720024905, 24.374062241638004, 28.23226807385708, 28.23226807385708, 31.30454308840191, 33.876680309881294, 38.73516172823125, 38.73516172823125, 41.53185061190328, 45.124677206985595, 49.05433129535688, 49.05433129535688, 52.21846835352597, 55.13763996203036, 58.73046655711267, 61.30260377859206, 61.30260377859206, 63.27253426964572, 65.71198187255672, 68.01873985689934, 69.37625672379126, 69.37625672379126, 70.60108397211476, 72.99970400008165, 75.46977228420076, 77.0212201320772, 77.0212201320772, 78.59308176742572, 79.44025394751615, 79.23611607279557, 79.85873659069335, 79.85873659069335, 80.63446051463158, 81.0937707327529, 81.05294315780878, 81.11418452022497, 81.11418452022497, 81.60411541955438, 82.31859798107642, 82.82894266787788, 82.82894266787788, 82.46149449338083, 82.21652904371612, 81.90011533789921, 81.87970155042716, 81.87970155042716, 81.83887397548304, 81.79804640053892, 81.70618435691466, 81.70618435691466, 81.88990844416318, 81.92052912537127, 81.59390852581834, 80.9202535392404, 80.9202535392404, 81.20604656384923, 80.87942596429627, 80.22618476519041, 80.22618476519041, 80.19556408398232, 80.8488052830882, 81.10397762648893, 81.12439141396099, 81.12439141396099, 80.68549498331173, 80.66508119583968, 80.46094332111909, 79.9097710593735, 79.9097710593735, 80.09349514662203, 79.99142620926175, 79.96080552805364, 79.57294356608453, 79.57294356608453, 79.25652986026762, 79.13404713543527, 79.28715054147571, 79.28715054147571, 79.47087462872425, 79.6341849285007, 79.61377114102865, 79.61377114102865, 79.6341849285007, 79.5933573535566]",80.34431701072542,1.8498191999970004,None
reward-effort-pgACC-TUS,R88533/RE002,A_1,1,2024-07-10_11h10.14.598,None,999,28,f,2.989898681640625,1,11,approach,normal,heart,None,70,60,65,reject,1.3419148999964818,None,0,583,"null",None,None,None
reward-effort-pgACC-TUS,R88533/RE002,A_1,1,2024-07-10_11h10.14.598,None,999,28,f,2.989898681640625,1,12,approach,normal,heart,None,60,40,42,reject,1.2969330999767408,None,0,583,"null",None,None,None
reward-effort-pgACC-TUS,R88533/RE002,A_1,1,2024-07-10_11h10.14.598,None,999,28,f,2.989898681640625,1,13,approach,normal,heart,None,80,80,98,accept,1.5576233000028878,success,98,681,"[0.3164137058169087, 0.3164137058169087, 0.32662059955293804, 0.3470343870249967, 0.357241280761026, 0.32662059955293804, 0.38786196196911393, 0.38786196196911393, 0.43889643064926054, 0.5817929429536709, 1.1635858859073418, 2.1842752595102732, 2.1842752595102732, 3.4805507639859963, 5.154481336694803, 8.675859675624917, 11.646065752809449, 11.646065752809449, 15.4940646912925, 19.903442785257162, 23.302338399354923, 23.302338399354923, 26.854337419493124, 30.038888265134272, 31.6515774754269, 31.6515774754269, 34.31557674053056, 37.9900584855011, 40.99088524389373, 44.001918896022374, 44.001918896022374, 48.53377971481939, 51.16715829871495, 53.44329560184949, 54.65791595643697, 56.48494993518622, 56.48494993518622, 59.302052606330314, 60.03694895532442, 61.42508650342441, 62.84384473273249, 62.84384473273249, 65.47722331662806, 67.25322282669715, 68.32494666898022, 68.97818786808611, 69.41708429873536, 70.4071529911302, 71.23391138374858, 72.58122135690445, 72.58122135690445, 73.83666928643606, 75.22480683453605, 76.12301348330662, 76.949771875925, 78.22563359292867, 78.22563359292867, 79.08301266675512, 79.7668745470691, 80.2874261276066, 80.89983975176834, 82.04301185020363, 82.04301185020363, 83.22701152358303, 83.60466659181611, 84.0537699162014, 84.17625264103376, 84.61514907168302, 85.00301103365213, 85.00301103365213, 85.656252232758, 86.95252773723374, 87.03418288712196, 87.48328621150725, 87.48328621150725, 88.00383779204475, 88.51418247884621, 88.63666520367856, 88.76935482224695, 88.99390648443959, 88.99390648443959, 89.01432027191166, 88.58563073499842, 88.73873414103886, 88.73873414103886, 88.70811345983077, 88.17735498555724, 88.25901013544548, 88.9632858032315, 88.9632858032315, 88.9632858032315, 88.97349269696753, 89.3103201902565, 89.57569942739326, 89.57569942739326, 89.53487185244914, 89.56549253365723, 89.5859063211293, 89.53487185244914, 89.36135465893665, 89.27969950904841, 89.3103201902565, 89.33073397772856, 89.33073397772856, 89.33073397772856, 89.04494095311973, 88.81018239719106, 88.8918375470793, 88.71832035356681, 88.75914792851091]",86.54013341663591,1.9759153999621049,None
reward-effort-pgACC-TUS,R88533/RE002,A_1,1,2024-07-10_11h10.14.598,None,999,28,f,2.989898681640625,1,14,approach,normal,heart,None,90,40,41,reject,1.4944700000341982,None,0,681,"null",None,None,None
reward-effort-pgACC-TUS,R88533/RE002,A_1,1,2024-07-10_11h10.14.598,None,999,28,f,2.989898681640625,1,15,approach,normal,heart,None,65,40,34,reject,1.9732126999879256,None,0,681,"null",None,None,None
reward-effort-pgACC-TUS,R88533/RE002,A_1,1,2024-07-10_11h10.14.598,None,999,28,f,2.989898681640625,1,16,approach,normal,heart,None,75,40,35,accept,1.1485512999352068,success,35,716,"[0.7348963489941106, 0.7348963489941106, 0.8777928612985211, 1.4697926979882212, 2.1842752595102732, 2.735447521255856, 2.735447521255856, 3.1947577393771756, 3.7051024261786414, 4.501240137588928, 4.501240137588928, 6.267032753921999, 8.543170057056535, 9.574066324395497, 9.574066324395497, 12.758617170036644, 16.810753983240282, 20.10758065997775, 23.82288997989242, 26.65019954477254, 26.65019954477254, 30.86564665775264, 32.40688761189307, 35.95888663203127, 35.95888663203127, 38.22481704142978, 41.02150592510181, 43.50178110295694, 43.50178110295694, 45.53295295642677, 49.768813856878936, 52.25929592847008, 54.22922641952375, 54.22922641952375, 55.229502005654616, 56.729915384850926, 59.57763873720311, 61.58839680320089, 61.58839680320089, 62.935706776356746, 64.89543037367437, 67.22260214548906, 67.22260214548906, 68.77404999336551, 69.66204974840007, 71.09101487144417, 71.09101487144417, 73.816255498964, 75.36770334684046, 76.22508242066692, 77.49073724393455, 77.49073724393455, 78.42977146764925, 78.67473691731396, 78.79721964214632, 78.79721964214632, 79.0728057730191, 79.97101242178968, 80.46094332111909, 81.7572188255948, 81.7572188255948, 82.66563236810141, 83.07390811754259, 82.81873577414186, 82.5533565370051, 82.5533565370051, 82.87997713655804, 82.98204607391833, 83.1147356924867, 83.1147356924867, 82.99225296765435, 82.80852888040583, 82.71666683678156, 83.26783909852715, 83.26783909852715, 83.38011492962347, 83.43114939830362, 83.59445969808009, 83.59445969808009, 84.18645953476978, 84.28852847213008, 84.20687332224183, 84.38039051575434, 84.38039051575434, 84.63556285915507, 84.88052830881978, 84.45183877190655, 84.45183877190655, 84.25790779092199, 84.41101119696242, 84.37018362201832, 84.14563195982566, 84.14563195982566, 84.11501127861757, 84.28852847213008, 84.30894225960213, 84.14563195982566, 84.07418370367347, 84.07418370367347, 84.10480438488155, 84.06397680993743, 83.88025272268891, 83.88025272268891, 83.91087340389699, 84.4722525593786, 84.70701111530727, 84.70701111530727, 84.48245945311463]",82.5791247605354,1.7988989000441507,None
reward-effort-pgACC-TUS,R88533/RE002,A_1,1,2024-07-10_11h10.14.598,None,999,28,f,2.989898681640625,1,17,approach,normal,heart,None,95,80,91,accept,1.2344049999956042,success,91,807,"[0.32662059955293804, 0.32662059955293804, 0.32662059955293804, 0.32662059955293804, 0.3470343870249967, 0.37765506823308465, 0.6124136241617588, 1.459585804252192, 1.459585804252192, 2.7150337337837978, 3.490757657722025, 4.705378012309514, 7.267308340052872, 9.36992844967491, 9.36992844967491, 13.044410194645465, 17.770201994427037, 22.33268349443214, 22.33268349443214, 25.14978616557623, 31.008543170057056, 33.79502515999306, 37.836955079460665, 40.837781837853285, 43.99171200228634, 43.99171200228634, 47.60495238484072, 51.82039949782082, 54.31088156941198, 56.61763955375461, 56.61763955375461, 61.56798301572882, 64.70149939268983, 67.75336061976259, 69.1517050615986, 69.79473936696846, 70.84604942177947, 73.07115225623386, 75.01046206607943, 75.01046206607943, 76.5006685515397, 77.39887520031029, 78.39915078644117, 79.26673675400366, 80.33846059628674, 81.95114980657937, 81.95114980657937, 83.0432874363345, 83.41073561083155, 83.93128719136905, 84.12521817235361, 84.12521817235361, 84.23749400344992, 84.62535596541905, 84.70701111530727, 84.69680422157126, 85.14590754595653, 85.14590754595653, 86.23804517571168, 86.99335531217784, 86.54425198779255, 86.54425198779255, 86.55445888152859, 87.09542424953813, 87.80990681106019, 88.5448031600543, 89.08576852806385, 89.25928572157635, 89.25928572157635, 89.54507874618517, 90.18811305155502, 90.45349228869178, 90.69845773835648, 90.99445765670133, 91.22921621263002, 91.22921621263002, 91.33128514999031, 91.84162983679177, 91.98452634909619, 92.30094005491308, 92.61735376073, 93.26038806609984, 93.76052585916528, 94.03611199003808, 94.03611199003808, 94.07693956498218, 93.44411215334837, 93.36245700346014, 92.98480193522705, 92.98480193522705, 92.88273299786675, 93.14811223500352, 93.48493972829249, 94.18921539607851, 94.18921539607851, 95.00576689496086, 95.61818051912262, 95.9958355873557, 96.33266308064466, 96.33266308064466, 96.76135261755789, 97.49624896655202, 97.99638675961745, 98.40466250905861, 98.50673144641891, 98.72107621487552, 98.72107621487552, 98.87417962091597, 99.04769681442846, 99.06811060190053, 99.06811060190053, 98.96604166454023, 99.04769681442846, 99.1293519643167, 99.15997264552479, 99.15997264552479, 99.17017953926081, 99.22121400794096, 99.22121400794096, 99.2722484766211, 99.24162779541302, 99.0579037081645, 99.0579037081645, 98.89459340838802, 98.89459340838802, 98.9558347708042, 98.97624855827625, 98.97624855827625, 98.97624855827625]",96.03191167728474,2.307380700018257,None
reward-effort-pgACC-TUS,R88533/RE002,A_1,1,2024-07-10_11h10.14.598,None,999,28,f,2.989898681640625,1,18,approach,normal,heart,None,65,60,62,accept,1.5878260999452323,success,62,869,"[0.520551580537495, 0.520551580537495, 0.5409653680095536, 0.5409653680095536, 0.5715860492176416, 0.5715860492176416, 0.5715860492176416, 0.6226205178977882, 1.102344523491166, 2.6435854776315924, 2.6435854776315924, 4.031723025731579, 7.491860002245517, 10.227307523501372, 13.84054790605575, 13.84054790605575, 18.73985689934982, 22.13875251344758, 25.629510171169606, 30.161370989966624, 30.161370989966624, 33.080542598471006, 37.02040358057832, 38.84743755932757, 38.84743755932757, 41.10316107499005, 43.12412603472385, 44.80826350116869, 44.80826350116869, 48.013228134281896, 50.47308952466496, 53.25957151460096, 53.25957151460096, 55.300950261806825, 58.37322527635165, 60.40439712982148, 61.52715544078471, 61.52715544078471, 61.915017402753826, 62.34370693966705, 63.72163759403101, 64.415706368081, 64.415706368081, 63.83391342512733, 64.63005113653762, 65.99777489716556, 65.99777489716556, 66.18149898441408, 65.75280944750084, 65.71198187255672, 65.73239566002879, 65.73239566002879, 65.57929225398834, 67.1613607830729, 68.3147397752442, 69.0088085492942, 69.0088085492942, 69.31501536137507, 69.4681187674155, 70.27446337256183, 70.27446337256183, 71.43804925846918, 73.3263245996346, 74.66342767905442, 74.66342767905442, 74.83694487256693, 74.99004827860738, 74.90839312871914, 74.8267379788309, 74.8267379788309, 74.66342767905442, 74.66342767905442, 74.68384146652649, 74.66342767905442, 74.66342767905442, 74.59197942290223, 74.36742776070957, 74.76549661641472, 74.76549661641472, 75.2452206220081, 75.21459994080001, 75.08191032223164, 75.08191032223164, 75.47997917793677, 75.46977228420076, 75.15335857838384, 75.1737723658559, 75.09211721596768, 75.05128964102354, 75.05128964102354, 75.54122054035295, 76.0821859083625, 76.0821859083625, 76.03115143968236, 75.84742735243384, 75.53101364661693, 75.53101364661693, 75.44935849672869, 75.43915160299267, 74.77570351015076]",71.75001802669136,1.6629282999783754,None
reward-effort-pgACC-TUS,R88533/RE002,A_1,1,2024-07-10_11h10.14.598,None,999,28,f,2.989898681640625,1,19,approach,normal,heart,None,85,100,101,accept,1.1134604000253603,success,101,970,"[0.683861880313964, 0.9288273299786676, 1.388137548099987, 2.0005511722617455, 2.898757821032325, 3.4805507639859963, 4.827860737141865, 7.767446133118308, 9.584273218131525, 12.993375725965317, 16.23916793402264, 18.99502924275055, 21.85295948883876, 26.17047553917916, 30.38592265215927, 33.1826115358313, 38.92909270921581, 42.21571249221724, 45.22674614434589, 45.22674614434589, 53.22895083339287, 54.86205383115757, 54.86205383115757, 56.99529462198769, 60.75143151684648, 62.966327457564844, 65.68136119134864, 67.65129168240229, 68.92715339940597, 69.3252222551111, 70.28467026629785, 71.42784236473314, 73.02011778755372, 74.53073806048606, 75.54122054035295, 75.6943239463934, 75.8372204586978, 76.33735825176325, 77.08246149449339, 77.63363375623896, 78.34811631776103, 79.48108152246027, 80.1139089340941, 80.23639165892644, 80.69570187704775, 81.43059822604187, 81.93073601910731, 82.80852888040583, 83.22701152358303, 83.25763220479112, 83.6352872730242, 84.07418370367347, 84.20687332224183, 84.29873536586611, 84.77845937145948, 85.30921784573302, 85.46232125177345, 85.70728670143815, 85.70728670143815, 85.70728670143815, 85.46232125177345, 85.4419074643014, 85.45211435803742, 85.05404550233227, 84.80908005266757, 84.84990762761169, 85.30921784573302, 85.38066610188521, 85.73790738264624, 86.70756228756903, 86.92190705602563, 87.25873454931461, 87.66701029875577, 87.8507343860043, 87.86094127974033, 88.15694119808518, 88.6876996723587, 89.08576852806385, 89.21845814663224, 89.3409408714646, 89.85128555826604, 90.13707858287488, 90.23914752023516, 90.39225092627561, 90.34121645759546, 90.41266471374767, 90.46369918242782, 90.44328539495575, 90.40245782001163, 90.51473365110796, 90.47390607616384, 90.34121645759546, 90.29018198891531]",86.91871740173315,1.9929909000638872,None
reward-effort-pgACC-TUS,R88533/RE002,A_1,1,2024-07-10_11h10.14.598,None,999,28,f,2.989898681640625,1,20,approach,normal,heart,None,55,100,85,accept,1.0594396999804303,success,85,1055,"[0.551172261745583, 0.7961377114102864, 1.2962755044757228, 1.653516785236749, 2.0005511722617455, 2.735447521255856, 3.9500678758433447, 4.848274524613924, 5.777101854592591, 7.318342808733018, 9.21682504363447, 11.217376215896216, 11.217376215896216, 16.096271421718228, 19.985097935145397, 24.13930368570933, 30.2226123523828, 32.427301399365135, 36.27530033784818, 38.000265379237135, 40.01102344523491, 42.20550559848121, 44.17543608953487, 45.91060802465986, 49.74840006940688, 52.8921233401039, 54.56605391281272, 55.81129494860829, 57.94453573943842, 59.985914486644276, 61.088259010135445, 61.58839680320089, 61.97625876517, 62.76218958284425, 62.986741245036896, 63.150051544813365, 63.39501699447807, 63.06839639492513, 62.67032753922, 62.74177579537219, 63.007155032508955, 62.52743102691558, 62.333500045931025, 62.333500045931025, 62.24163800230676, 62.32329315219499, 62.139569064946464, 62.1497759586825, 62.31308625845896, 62.60908617680382, 62.935706776356746, 62.95612056382881, 62.90508609514867, 63.09901707613322, 63.221499800965574, 63.21129290722954, 63.62977555040674, 63.65018933787881, 63.007155032508955, 63.50729282557439, 63.95639614995968, 63.62977555040674, 62.73156890163617, 62.3947414083472, 62.15998285241853, 61.93543119022588, 61.465914078368534, 61.09846590387148, 61.07805211639942, 60.49625917344574, 60.11860410521266, 59.557224949731044, 59.557224949731044, 59.04688026292958]",61.67255160053467,1.5616207000566646,None
reward-effort-pgACC-TUS,R88533/RE002,A_1,1,2024-07-10_11h10.14.598,None,999,28,f,2.989898681640625,1,21,approach,normal,heart,None,90,20,20,reject,1.7288206999655813,None,0,1055,"null",None,None,None
reward-effort-pgACC-TUS,R88533/RE002,A_1,1,2024-07-10_11h10.14.598,None,999,28,f,2.989898681640625,1,22,approach,normal,heart,None,65,100,98,accept,1.2620295999804512,success,98,1153,"[0.12248272483235177, 0.1326896185683811, 0.08165514988823451, 0.12248272483235177, 0.19393098098455697, 0.37765506823308465, 1.2554479295316057, 3.092688802016882, 5.297377848999214, 9.492411174507263, 12.472824145427822, 19.362477417247607, 24.200545048125505, 29.314198809876192, 33.060128810998954, 37.31640349892317, 39.60274769579374, 41.67474712420769, 44.093780939646635, 46.59446990497382, 50.15667581884805, 52.51446827187082, 54.44357118798037, 55.229502005654616, 58.35281148887959, 59.99612138038031, 61.0372245414553, 62.87446541394057, 64.81377522378614, 67.36549865779348, 67.91667091953906, 68.65156726853317, 69.19253263654272, 69.41708429873536, 69.79473936696846, 70.64191154705888, 70.65211844079491, 70.71335980321109, 71.376807896053, 71.376807896053, 72.9486695314015, 73.43860043073092, 74.70425525399855, 74.18370367346105, 73.89791064885223, 73.90811754258826, 74.4082553356537, 74.73487593520663, 74.74508282894267, 74.68384146652649, 74.83694487256693, 74.32660018576547, 73.21404876853828, 73.34673838710664, 73.74480724281179, 73.7754279240199, 73.18342808733019, 73.18342808733019, 73.122186724914, 73.13239361865004, 73.13239361865004, 72.89763506272136, 72.8363937003052, 72.88742816898534, 72.75473855041696, 71.2747389586927, 70.59087707837874, 69.82536004817655, 69.59060149224786, 69.6008083859839, 70.1213599665214, 70.75418737815521, 70.72356669694712, 70.47860124728241, 70.44798056607434, 70.32549784124198]",71.64385356482012,1.6144125999417156,None
reward-effort-pgACC-TUS,R88533/RE002,A_1,1,2024-07-10_11h10.14.598,None,999,28,f,2.989898681640625,1,23,approach,normal,heart,None,55,20,21,reject,1.590993299963884,None,0,1153,"null",None,None,None
reward-effort-pgACC-TUS,R88533/RE002,A_1,1,2024-07-10_11h10.14.598,None,999,28,f,2.989898681640625,1,24,approach,normal,heart,None,85,80,72,accept,1.0153217000188306,success,72,1225,"[0.09186204362426383, 0.12248272483235177, 0.1326896185683811, 0.17351719351249836, 0.2959999183448501, 0.5103446868014657, 0.8369652863544038, 1.7351719351249832, 1.7351719351249832, 3.3376542516815855, 4.542067712533044, 7.614342727077869, 9.084135425066089, 11.492962346769007, 17.10675390158513, 20.36275300337848, 20.36275300337848, 23.96578649219683, 27.895440580568113, 30.82481908280853, 31.784267093995282, 35.11171445194084, 35.11171445194084, 38.0921274228614, 41.18481622487828, 44.165229195798844, 46.21681483674073, 50.37102058730466, 53.26977840833699, 54.30067467567595, 54.30067467567595, 54.96412276851785, 56.587018872546516, 59.51639737478693, 61.40467271595236, 62.935706776356746, 64.74232696763394, 64.74232696763394, 66.65101609627142, 67.81460198217877, 68.45763628754861, 68.93736029314199, 68.93736029314199, 69.09046369918242, 69.26398089269492, 69.988670347953, 70.52963571596256, 70.64191154705888, 72.18315250119932, 72.18315250119932, 73.2548763434824, 74.73487593520663, 75.2452206220081, 75.2452206220081, 75.57184122156104, 75.87804803364192, 76.62315127637206, 78.14397844304042, 79.042185091811, 79.042185091811, 79.72604697212498, 80.42011574617497, 81.0937707327529, 81.39997754483377, 81.71639125065069, 81.83887397548304, 81.86949465669113, 81.99197738152348, 81.99197738152348, 81.90011533789921, 82.02259806273156, 82.6248047931573, 83.2882528859992, 83.2882528859992, 83.71694242291244, 84.29873536586611, 84.89073520255582, 85.18673512090066, 85.83997632000653, 85.83997632000653, 86.6667347126249, 87.44245863656313, 87.8813550672124, 88.6468720974146, 88.6468720974146, 89.27969950904841, 89.6573545772815, 89.6573545772815, 90.1472854766109, 90.42287160748369, 90.51473365110796, 90.51473365110796, 90.48411296989987, 90.51473365110796, 90.82094046318883, 90.57597501352413, 90.34121645759546, 90.25956130770723, 90.25956130770723, 90.52494054484399, 90.48411296989987, 90.3208026701234, 90.21873373276311, 90.25956130770723, 90.25956130770723, 90.24935441397119, 90.03500964551459, 89.96356138936238, 90.00438896430649, 89.96356138936238, 89.96356138936238, 89.53487185244914, 89.14700989048004, 88.94287201575945, 88.58563073499842, 88.58563073499842, 88.28963081665357, 88.18756187929327, 88.57542384126239]",87.53736484147713,2.144948899978772,None
reward-effort-pgACC-TUS,R88533/RE002,A_1,1,2024-07-10_11h10.14.598,None,999,28,f,2.989898681640625,1,25,approach,normal,heart,None,55,40,39,reject,1.373324100044556,None,0,1225,"null",None,None,None
reward-effort-pgACC-TUS,R88533/RE002,A_1,1,2024-07-10_11h10.14.598,None,999,28,f,2.989898681640625,1,26,approach,normal,heart,None,50,20,18,reject,1.312471600016579,None,0,1225,"null",None,None,None
reward-effort-pgACC-TUS,R88533/RE002,A_1,1,2024-07-10_11h10.14.598,None,999,28,f,2.989898681640625,1,27,approach,normal,heart,None,75,100,104,accept,1.0406397000188008,success,104,1329,"[0.551172261745583, 0.6226205178977882, 0.8063446051463159, 0.9492411174507263, 1.2146203545874885, 1.5106202729323386, 1.9086891286374819, 2.4598613903830646, 3.1947577393771756, 3.674481744970553, 4.501240137588928, 7.083584252804344, 8.992273381441827, 8.992273381441827, 10.809100466455043, 13.483306625294725, 16.780133302032194, 19.995304828881427, 22.240821450807875, 24.26178641054168, 26.415440988843862, 29.222336766251928, 31.243301725985727, 33.28468047319159, 37.09185183673053, 38.90867892174374, 38.90867892174374, 42.36881589825769, 44.726608351280454, 46.7271595235422, 49.932124156655405, 51.35088238596348, 52.86150265889582, 54.23943331325978, 55.158053749502415, 56.168536229369316, 58.15888050789503, 59.51639737478693, 60.53708674838987, 62.00687944637808, 62.53763792065161, 62.69074132669205, 63.109223969869255, 64.08908576852807, 65.08936135465893, 66.35501617792657, 67.87584334459494, 69.03942923050228, 69.22315331775081, 69.26398089269492, 69.41708429873536, 69.92742898553684, 70.73377359068314, 71.4482561522052, 72.63225582558461, 72.81597991283313, 73.30591081216254, 73.98977269247649, 74.84715176630297, 75.68411705265736, 76.85790983230073, 77.33763383789412, 77.4703234564625, 78.05211639941616, 78.85846100456249, 80.07308135914997, 80.16494340277424, 80.04246067794189, 80.91004664550438, 81.83887397548304, 81.90011533789921, 81.86949465669113, 81.87970155042716, 81.91032223163525, 81.69597746317862, 81.43059822604187, 81.43059822604187, 81.62452920702643, 81.06315005154482, 80.60383983342349, 80.61404672715953, 80.38949506496688, 79.81790901574924, 79.36880569136395, 79.44025394751615, 79.40963326630806, 79.01156441060292, 78.35832321149705, 78.41956457391322, 78.19501291172057, 77.62342686250292, 77.59280618129485, 77.64384064997499, 78.17459912424852, 77.72549579986322, 77.5417717126147, 77.6132199687669, 78.01128882447205, 77.6132199687669, 77.4397027752544, 77.46011656272647, 77.00080634460514]",78.49392908541857,2.131004200084135,None
reward-effort-pgACC-TUS,R88533/RE002,A_1,1,2024-07-10_11h10.14.598,None,999,28,f,2.989898681640625,1,28,approach,normal,heart,None,75,80,86,accept,1.8203114999923855,success,86,1415,"[0.24496544966470354, 0.25517234340073286, 0.2245516621926449, 0.23475855592867426, 0.2143447684566156, 0.2245516621926449, 0.2245516621926449, 0.23475855592867426, 0.2653792371367622, 0.3368274932889674, 0.551172261745583, 1.1737927796433711, 1.1737927796433711, 2.919171608504384, 4.3175160503404, 7.420411746093311, 9.98234207383667, 12.972961938493258, 12.972961938493258, 16.708685045879985, 20.036132403825544, 22.536821369152726, 25.364130934032847, 28.181233605176935, 30.916681126432792, 32.845784042542334, 37.551162054851844, 39.45985118348933, 42.85874679758709, 42.85874679758709, 45.37984955038633, 48.76853827074806, 50.53433088708113, 53.03501985240832, 54.49460565666051, 55.413226092903145, 55.413226092903145, 57.3117083278046, 59.97570759290824, 61.915017402753826, 63.66039623161483, 65.37515437926776, 67.13074010186479, 68.16163636920376, 68.87611893072581, 69.29460157390301, 69.95804966674491, 70.66232533453093, 71.48908372714932, 72.64246271932063, 73.47942800567503, 74.64301389158237, 74.36742776070957, 74.02039337368458, 74.83694487256693, 75.64328947771325, 75.73515152133751, 75.78618599001766, 76.7762546824125, 77.50094413767059, 77.46011656272647, 76.85790983230073, 77.56218550008676, 78.21542669919263, 78.24604738040073, 78.18480601798454, 78.72577138599411, 79.36880569136395, 79.6648056097088, 79.44025394751615, 79.50149530993232, 79.69542629091688, 79.48108152246027, 79.39942637257204, 79.2157022853235, 79.2157022853235, 79.6341849285007, 79.16466781664336, 79.05239198554705, 79.18508160411541, 79.44025394751615, 79.39942637257204, 79.39942637257204, 79.23611607279557, 79.4606677349882, 79.60356424729262, 79.60356424729262, 79.5627366723485, 79.25652986026762, 79.71584007838895, 79.80770212201321, 79.36880569136395, 78.90949547324263, 78.71556449225807, 78.71556449225807, 78.35832321149705, 78.18480601798454, 78.10315086809632, 77.8888060996397, 77.35804762536618, 77.35804762536618]",77.95543978327493,1.9544902000343427,None
reward-effort-pgACC-TUS,R88533/RE002,A_1,1,2024-07-10_11h10.14.598,None,999,28,f,2.989898681640625,1,29,approach,normal,heart,None,65,60,60,reject,1.5163183000404388,None,0,1415,"null",None,None,None
reward-effort-pgACC-TUS,R88533/RE002,A_1,1,2024-07-10_11h10.14.598,None,999,28,f,2.989898681640625,1,30,approach,normal,heart,None,95,100,91,accept,1.4072255999781191,success,91,1506,"[0.5613791554816122, 1.398344441836016, 1.398344441836016, 1.63310299776469, 1.8066201912771886, 2.0005511722617455, 2.041378747205863, 2.020964959733804, 1.949516703581599, 1.9188960223735112, 2.092413215886009, 2.602757902687475, 3.358068039153644, 3.7459300011227583, 4.143998856827902, 4.348136731548488, 4.439998775172752, 4.746205587253631, 5.011584824390393, 5.756688067120534, 7.481653108509486, 8.543170057056535, 9.175997468690353, 9.757790411644024, 11.14592795974401, 12.707582701356495, 14.942892429546916, 18.556132812101293, 24.598613903830646, 30.93709491390485, 34.376818102946736, 38.41874802241434, 42.10343666112092, 45.85957355597971, 52.03474426627744, 55.05598481214212, 59.424535331162666, 65.36494748553173, 66.51832647770304, 67.12053320812878, 68.47805007502068, 69.38646361752728, 70.27446337256183, 70.81542874057138, 73.16301429985812, 74.96963449113532, 76.05156522715441, 78.15418533677646, 80.38949506496688, 82.2063221499801, 83.35970114215141, 84.21708021597787, 85.18673512090066, 87.04438978085798, 87.34038969920283, 87.63638961754769, 87.64659651128372, 87.33018280546682, 89.3409408714646, 89.47363049003297, 90.02480275177855, 90.10645790166679, 89.68797525848959, 89.8002510895859, 90.48411296989987, 91.22921621263002, 91.33128514999031, 91.66811264327927, 92.0661814989844, 92.49487103589765, 92.4438365672175, 92.45404346095353, 92.56631929204985, 93.07666397885131, 93.44411215334837, 93.95445684014983, 93.86259479652558, 94.11776713992631, 94.03611199003808, 94.29128433343881, 94.42397395200719, 95.02618068243291, 95.65900809406673, 95.79169771263511, 95.86314596878732, 96.01624937482775, 96.48576648668511, 96.50618027415716, 96.53680095536525, 96.02645626856379, 95.88355975625937, 96.08769763097996, 96.39390444306085, 96.74093883008584, 98.30259357169832, 98.89459340838802, 99.0272830269564, 98.89459340838802, 99.0272830269564, 98.69045553366745, 98.82314515223582, 98.51693834015494, 98.60880038377921, 98.41486940279465, 97.84328335357701, 97.06755942963878, 96.88383534239024, 96.6899043614057, 96.42452512426894, 96.42452512426894, 95.750870137691, 95.11804272605718]",95.5492839864044,2.490253399941139,None
reward-effort-pgACC-TUS,R88533/RE002,A_1,1,2024-07-10_11h10.14.598,None,999,28,f,2.989898681640625,1,31,approach,normal,heart,None,90,100,98,accept,1.3655508999945596,success,98,1604,"[0.8982066487705797, 0.908413542506609, 1.0002755861308728, 1.5718616353485144, 1.5718616353485144, 2.051585640941892, 2.5313096465352696, 2.8885509272962957, 3.153930164433058, 3.4295162953058496, 3.664274851234524, 3.9194471946352567, 4.052136813203638, 4.184826431772018, 4.593102181213191, 5.460688148775683, 7.093791146540374, 7.093791146540374, 8.900411337817562, 9.339307768466822, 9.420962918355057, 9.53323874945138, 9.54344564318741, 9.431169812091087, 9.36992844967491, 9.451583599563145, 9.635307686811673, 9.900686923948435, 10.441652291957988, 11.625651965337388, 13.25875496310208, 15.004133791963092, 16.923029814336605, 18.647994855725557, 20.515856409418923, 22.689924775193166, 24.98647586579976, 24.98647586579976, 26.395027201371807, 28.569095567146054, 30.426750227103383, 31.825094668939403, 33.774611372521, 37.17350698661876, 39.43943739601727, 41.59309197431946, 44.471436007879724, 45.97184938707603, 48.60522797097159, 50.21791718126423, 51.034468680146574, 51.71833056046054, 52.269502822206114, 52.483847590662734, 52.73901993406347, 53.657640370306105, 54.0046747573311, 54.48439876292448, 56.21957069804946, 59.25101813765017, 61.292396884856025, 64.38508568687291, 66.20191277188613, 68.0697743255795, 68.95777408061404, 69.14149816786257, 69.37625672379126, 69.41708429873536, 71.00935972155594, 72.68329029426475, 72.79556612536106, 72.86701438151327, 73.87749686138018, 75.01046206607943, 75.89846182111398, 76.2863237830831, 76.83749604482868, 77.6132199687669, 77.6132199687669, 77.80715094975146, 77.75611648107132, 78.55225419248161, 79.52190909740439, 80.54259847100732, 81.28770171373746, 81.53266716340217, 81.77763261306687, 81.96135670031539, 82.32880487481245, 82.91059781776612, 83.2882528859992, 83.41073561083155, 83.7067355291764, 84.15583885356169, 84.18645953476978, 84.58452839047493, 84.58452839047493, 84.68659732783522, 85.05404550233227, 85.06425239606831, 85.27859716452491, 85.69707980770212, 85.9318383636308, 86.86066569360946, 87.03418288712196, 87.31997591173078, 87.55473446765946, 87.51390689271534, 87.44245863656313, 86.7688036499852, 86.003286619783, 85.7277004889102, 85.656252232758, 85.74811427638227, 85.78894185132638, 85.8603901074786, 86.05432108846315, 86.11556245087932, 86.2482520694477, 86.36052790054403, 86.7994243311933, 87.27914833678666, 87.59556204260358, 87.93238953589254, 88.20797566676534, 89.0653547405918, 89.3409408714646, 89.56549253365723, 89.56549253365723, 89.99418207057046, 90.00438896430649, 90.26976820144326, 90.26976820144326, 90.37183713880354, 90.37183713880354, 90.48411296989987, 90.85156114439692, 91.30066446878222, 91.36190583119838, 91.5048023435028, 91.86204362426382, 92.09680218019251, 92.39280209853735, 92.99500882896308, 93.11749155379543, 93.4543190470844, 94.18921539607851, 94.82204280771232, 95.06700825737703]",89.0379237136762,3.1756938999751583,None
reward-effort-pgACC-TUS,R88533/RE002,A_1,1,2024-07-10_11h10.14.598,None,999,28,f,2.989898681640625,1,32,approach,normal,heart,None,65,20,19,reject,1.1578928999369964,None,0,1604,"null",None,None,None
reward-effort-pgACC-TUS,R88533/RE002,A_1,1,2024-07-10_11h10.14.598,None,999,28,f,2.989898681640625,1,33,approach,normal,heart,None,75,60,67,reject,1.3943538999883458,None,0,1604,"null",None,None,None
reward-effort-pgACC-TUS,R88533/RE002,A_1,1,2024-07-10_11h10.14.598,None,999,28,f,2.989898681640625,1,34,approach,normal,heart,None,90,100,114,accept,1.7084594999905676,success,114,1718,"[1.8984822349014525, 2.388413134230859, 2.766068202463944, 3.3784818266257033, 4.052136813203638, 5.6648260234962695, 9.002480275177856, 10.237514417237401, 12.738203382564583, 16.759719514560135, 19.566615291968194, 23.026752268482134, 28.518061098465903, 31.784267093995282, 37.54095516111582, 40.39888540720403, 43.18536739714003, 44.97157380094516, 48.11529707164219, 50.2791585436804, 52.61653720923112, 55.07639859961419, 58.414052851295764, 61.139293478815596, 63.456258356894246, 66.23253345309422, 68.22287773161993, 69.33542914884713, 69.7437048982883, 70.56025639717065, 71.08080797770815, 73.5712900492993, 75.42894470925663, 76.43942718912353, 76.7762546824125, 77.27639247547793, 78.32770253028896, 79.19528849785145, 79.15446092290733, 79.12384024169924, 79.48108152246027, 79.88935727190145, 80.8488052830882, 82.05321874393967, 82.2777704061323, 83.0432874363345, 84.16604574729773, 84.84990762761169, 85.79914874506241, 87.37101038041092, 87.38121727414696, 87.47307931777122, 87.74866544864402, 88.27942392291754, 88.43252732895797, 88.23859634797341, 89.19804435916018, 89.3103201902565, 89.33073397772856, 89.28990640278444, 89.2388719341043, 88.41211354148591, 88.36107907280577, 88.42232043522195, 88.5448031600543, 89.27969950904841, 88.94287201575945, 89.39197534014474, 89.74921662090576, 89.68797525848959, 89.56549253365723, 89.59611321486533, 89.59611321486533, 89.72880283343369, 89.8002510895859, 90.17790615781898, 90.5963888009962, 90.67804395088443, 90.61680258846825, 90.80052667571678, 91.56604370591897, 91.65790574954325, 91.89266430547191, 91.83142294305574, 92.3417676298572, 92.63776754820205, 92.67859512314617, 92.39280209853735, 92.94397436028294, 93.15831912873955, 93.40328457840425, 93.30121564104397, 94.59749114551968, 95.52631847549836, 95.53652536923438, 94.62811182672777]",90.39863023486062,2.08351460006088,None
reward-effort-pgACC-TUS,R88533/RE002,A_1,1,2024-07-10_11h10.14.598,None,999,28,f,2.989898681640625,1,35,approach,normal,heart,None,85,80,82,accept,1.2246855000266805,success,82,1800,"[1.4085513355720454, 1.78620640380513, 2.1332407908301265, 2.1332407908301265, 2.337378665550713, 2.4802751778551233, 2.694619946311739, 2.694619946311739, 2.8068957774080614, 3.031447439600706, 3.4805507639859963, 3.4805507639859963, 4.235860900452165, 5.8995845794249435, 7.910342645422719, 9.859859349004317, 12.554479295316057, 12.554479295316057, 15.871719759525584, 19.719718698008634, 22.363304175640227, 25.609096383697548, 25.609096383697548, 28.916129954171048, 31.590336113010725, 34.39723189041879, 37.42867933001949, 38.54123074724669, 38.54123074724669, 39.663989058209914, 41.06233350004593, 43.277229440764295, 45.42067712533045, 48.68688312085983, 49.74840006940688, 51.65708919804436, 53.892398926234776, 53.892398926234776, 55.821501842344325, 59.49598358731487, 61.772120890449415, 63.854327212599394, 67.14094699560083, 68.26370530656405, 68.26370530656405, 68.88632582446185, 69.28439468016698, 69.61101527971992, 70.19280822267359, 70.19280822267359, 70.69294601573904, 70.87667010298756, 71.25432517122064, 71.02977350902799, 71.02977350902799, 70.96853214661182, 70.95832525287578, 71.32577342737285, 72.10149735131107, 72.9792902126096, 73.46922111193899, 74.67363457279046, 74.67363457279046, 76.1842548457228, 77.30701315668603, 78.4808059363294, 79.61377114102865, 80.73652945199188, 81.88990844416318, 82.63501168689332, 82.63501168689332, 83.58425280434405, 83.97211476631317, 84.2272871097139, 84.33956294081023, 84.67639043409919, 84.67639043409919, 86.14618313208742, 86.44218305043226, 86.78921743745725, 86.78921743745725, 87.47307931777122, 87.78949302358812, 87.83032059853225, 87.83032059853225, 87.71804476743593, 89.44300980882488, 89.72880283343369, 89.6573545772815, 89.25928572157635, 89.6573545772815, 89.82066487705796, 89.82066487705796, 89.97376828309841, 89.68797525848959, 89.63694078980944, 89.92273381441825, 89.72880283343369, 88.6876996723587, 87.72825166117195, 87.72825166117195, 87.67721719249181, 87.54452757392343, 87.54452757392343, 86.73818296877711, 86.72797607504108, 86.72797607504108, 86.5238382003205, 86.11556245087932, 85.20714890837272, 85.07445928980434, 85.05404550233227, 84.83970073387566, 84.7478386902514, 84.7478386902514, 84.46204566564258, 84.04356302246538, 83.66590795423228, 83.7067355291764, 83.58425280434405, 82.90039092403009, 82.90039092403009, 82.7983219866698, 82.5533565370051, 81.7878395068029]",86.23858238064517,2.2425943999551237,None
reward-effort-pgACC-TUS,R88533/RE002,A_1,1,2024-07-10_11h10.14.598,None,999,28,f,2.989898681640625,1,36,approach,normal,heart,None,95,40,34,reject,1.0069107000017539,None,0,1800,"null",None,None,None
reward-effort-pgACC-TUS,R88533/RE002,A_1,1,2024-07-10_11h10.14.598,None,999,28,f,2.989898681640625,1,37,approach,normal,heart,None,80,40,43,reject,1.519988700048998,None,0,1800,"null",None,None,None
reward-effort-pgACC-TUS,R88533/RE002,A_1,1,2024-07-10_11h10.14.598,None,999,28,f,2.989898681640625,1,38,approach,normal,heart,None,55,80,91,accept,1.0596683999756351,success,91,1891,"[0.2959999183448501, 0.2959999183448501, 0.3164137058169087, 0.2857930246088208, 0.32662059955293804, 0.43889643064926054, 0.43889643064926054, 0.6736549865779348, 1.4187582293080747, 2.633378583895563, 3.439723189041879, 3.439723189041879, 4.8993089932940705, 7.451032427301399, 9.420962918355057, 11.186755534688128, 13.503720412766782, 13.503720412766782, 16.688271258407926, 18.688822430669674, 21.199718289732886, 23.751441723740214, 25.833648045890197, 29.222336766251928, 31.590336113010725, 33.907300991089386, 37.86757576066876, 37.86757576066876, 39.276127096240806, 40.82757494411726, 42.79750543517091, 44.236677451951046, 45.481918487746626, 46.676125054862055, 49.07474508282894, 52.03474426627744, 52.03474426627744, 54.01488165106713, 55.1172261745583, 56.801363641003135, 60.475845385973685, 62.24163800230676, 63.19087911975748, 63.803292743919236, 65.37515437926776, 66.4366713278148, 67.03887805824054, 66.32439549671848, 65.803843916181, 66.05901625958172, 65.7017749788207, 64.50756841170526, 63.13984465107734, 62.59887928306779, 62.59887928306779, 61.925224296489844, 61.68025884682514, 61.69046574056117, 61.670051953089114, 61.56798301572882, 61.20053484123177, 60.802465985526624, 60.4452247047656, 60.4452247047656, 59.38370775621855, 59.03667336919355, 59.026466475457525, 59.14894920028988, 58.883569963153114, 57.98536331438253, 57.617915139885476, 57.648535821093574, 57.60770824614945, 57.60770824614945, 57.87308748328621, 58.06701846427077, 58.39363906382371, 59.006052687985466, 59.77156971818766, 60.271707511253105, 59.35308707501046, 58.58757004480827, 58.628397619752384, 59.27143192512223, 59.29184571259428, 59.24081124391414, 59.24081124391414, 59.985914486644276, 61.159707266287654]",60.66820607561424,1.7378607999999076,None
reward-effort-pgACC-TUS,R88533/RE002,A_1,1,2024-07-10_11h10.14.598,None,999,28,f,2.989898681640625,1,39,approach,normal,heart,None,55,40,36,reject,2.55035300005693,None,0,1891,"null",None,None,None
reward-effort-pgACC-TUS,R88533/RE002,A_1,1,2024-07-10_11h10.14.598,None,999,28,f,2.989898681640625,1,40,approach,normal,heart,None,60,40,40,reject,1.3778452000115067,None,0,1891,"null",None,None,None
reward-effort-pgACC-TUS,R88533/RE002,A_1,1,2024-07-10_11h10.14.598,None,999,28,f,2.989898681640625,1,41,approach,normal,heart,None,50,40,32,accept,1.3313236000249162,success,32,1923,"[0.5001377930654364, 0.6328274116338174, 0.6328274116338174, 0.8267583926183745, 1.428965123044104, 2.2965510906065956, 2.2965510906065956, 3.031447439600706, 4.103171281883784, 5.838343217008768, 5.838343217008768, 8.461514907168302, 9.410756024619028, 10.686617741622692, 10.686617741622692, 12.564686189052084, 14.667306298674124, 17.147581476529247, 19.08689128637482, 19.08689128637482, 21.12827003358068, 22.45516621926449, 24.13930368570933, 24.13930368570933, 24.85378624723138, 26.272544476539455, 27.39530278750268, 27.39530278750268, 28.885509272962963, 30.8146121890725, 31.5801292192747, 31.5801292192747, 32.662059955293806, 35.11171445194084, 37.66343788594817, 38.54123074724669, 38.54123074724669, 39.357782246129034, 40.276402682371675, 41.33791963091873, 42.879160585059154, 42.879160585059154, 44.27750502689516, 45.35943576291427, 46.870056035846616, 46.870056035846616, 48.60522797097159, 49.23805538260541, 49.58508976963041, 49.58508976963041, 49.952537944127464, 50.62619293070539, 51.08550314882672, 51.31005481101937, 51.31005481101937, 51.289641023547304, 51.47336511079583, 52.07557184122156, 52.07557184122156, 52.38177865330243, 52.59612342175905, 52.90233023383993, 53.433088708113466, 53.433088708113466, 53.55557143294581, 53.759709307666405, 54.37212293182816, 54.37212293182816, 55.09681238708624, 55.627570861359764, 55.066191705878154, 54.851846937421534, 54.851846937421534, 55.24991579312668, 56.14812244189725, 56.11750176068917, 56.11750176068917, 55.66839843630388, 55.21929511191858, 55.35198473048697, 55.35198473048697, 55.19888132444654, 54.96412276851785, 54.87226072489359, 54.8416400436855, 54.8416400436855, 54.780398681269325, 54.87226072489359, 54.96412276851785, 54.96412276851785, 54.79060557500536, 54.433364294244335, 54.3517091443561, 54.3517091443561, 54.321088463148016, 54.178191950843605, 53.85157135129066, 53.84136445755463, 53.84136445755463, 53.95364028865095, 53.963847182386985, 53.64743347657007, 53.64743347657007, 53.57598522041786, 53.71888173272228, 53.67805415777816, 53.06564053361641]",53.62701968909801,1.783111699973233,None
reward-effort-pgACC-TUS,R88533/RE002,A_1,1,2024-07-10_11h10.14.598,None,999,28,f,2.989898681640625,1,42,approach,normal,heart,None,50,40,41,reject,1.24453300004825,None,0,1923,"null",None,None,None
reward-effort-pgACC-TUS,R88533/RE002,A_1,1,2024-07-10_11h10.14.598,None,999,28,f,2.989898681640625,1,43,approach,normal,heart,None,70,80,94,accept,1.8774148999946192,success,94,2017,"[0.09186204362426383, 0.10206893736029313, 0.10206893736029313, 0.11227583109632246, 0.11227583109632246, 0.08165514988823451, 0.08165514988823451, 0.09186204362426383, 0.17351719351249836, 0.6328274116338174, 2.2353097281904195, 3.4703438702499665, 5.215722699110979, 9.012687168913883, 12.19723801455503, 16.290202402702786, 16.290202402702786, 20.301511640962307, 23.0165453747461, 24.955855184591673, 27.180958019046063, 29.446888428444574, 30.875853551488674, 31.539301644330582, 32.22316352464454, 33.6010941790085, 35.846610800934954, 37.38785175507538, 38.17378257274964, 38.17378257274964, 39.51088565216948, 41.06233350004593, 43.08329845977973, 44.144815408326785, 44.920539332265015, 46.227021730476764, 46.227021730476764, 49.16660712645321, 51.09571004256275, 52.80026129647965, 54.504812550396544, 55.21929511191858, 55.21929511191858, 55.974605248384755, 56.03584661080093, 56.81157053473916, 59.06729405040164, 59.59805252467516, 59.404121543690614, 59.35308707501046, 59.35308707501046, 59.72053524950752, 60.200259255100896, 60.383983342349424, 60.37377644861339, 60.67998326069427, 61.76191399671338, 62.74177579537219, 63.680810019086884, 63.680810019086884, 64.75253386136997, 66.16108519694201, 68.04936053810744, 68.37598113766037, 68.23308462535597, 68.62094658732508, 69.19253263654272, 69.44770497994345, 69.44770497994345, 69.48853255488757, 70.4071529911302, 70.93791146540373, 71.28494585242873, 72.24439386361549, 73.4998417931471, 74.18370367346105, 74.2347381421412, 74.03060026742062, 74.03060026742062, 74.03060026742062, 74.60218631663825, 74.79611729762281, 74.79611729762281, 75.21459994080001, 75.21459994080001, 76.0821859083625, 76.57211680769191, 76.31694446429118, 76.05156522715441, 75.87804803364192, 75.87804803364192, 75.87804803364192, 75.87804803364192, 75.87804803364192, 76.0413583334184, 76.56190991395589, 76.39859961417942, 76.06177212089045, 76.03115143968236, 75.9801169710022, 75.58204811529707, 75.61266879650516, 75.84742735243384, 75.84742735243384, 76.06177212089045, 75.95970318353015, 76.2148755269309, 76.6027374889, 75.89846182111398, 75.13294479091178, 75.09211721596768, 75.14315168464782, 75.14315168464782, 75.26563440948017, 75.30646198442427, 75.0002551723434, 75.20439304706399]",74.1957663660582,2.208912899950519,None
reward-effort-pgACC-TUS,R88533/RE002,A_1,1,2024-07-10_11h10.14.598,None,999,28,f,2.989898681640625,1,44,approach,normal,heart,None,90,60,58,reject,1.6419018000597134,None,0,2017,"null",None,None,None
reward-effort-pgACC-TUS,R88533/RE002,A_1,1,2024-07-10_11h10.14.598,None,999,28,f,2.989898681640625,1,45,approach,normal,heart,None,80,100,83,accept,1.71437370008789,success,83,2100,"[0.10206893736029313, 0.12248272483235177, 0.2143447684566156, 0.3164137058169087, 0.8063446051463159, 1.2758617170036644, 2.2251028344543906, 3.1335163769609995, 4.001102344523491, 5.419860573831565, 7.889928857950659, 9.492411174507263, 12.49323793289988, 15.412409541404266, 18.04578812529983, 20.454615047002743, 22.689924775193166, 24.741510416135057, 28.538474885937966, 31.365784450818087, 33.28468047319159, 37.5001275861717, 39.29654088371286, 41.69516091167974, 43.70591897767752, 45.339021975442215, 50.60577914323334, 52.73901993406347, 54.290467781939924, 54.9437089810458, 55.607157073887706, 57.127984240556074, 60.761638410582506, 61.8741898278097, 63.60936176293469, 65.43639574168392, 67.2736366141692, 69.17211884907066, 70.24384269135375, 71.93818705153461, 72.77515233788901, 72.7343247629449, 72.77515233788901, 72.51997999448828, 72.74453165668092, 73.06094536249783, 72.99970400008165, 73.23446255601033, 74.86756555377502, 75.33708266563237, 75.44935849672869, 75.71473773386546, 76.1842548457228, 77.10287528196544, 77.59280618129485, 79.3177712226838, 80.40990885243893, 80.80797770814408, 81.47142580098598, 81.44080511977789, 81.60411541955438, 81.98177048778746, 82.60439100568524, 82.6962530493095, 83.41073561083155, 83.40052871709553, 83.31887356720729, 83.42094250456759, 82.99225296765435, 82.5533565370051, 82.73708062425362, 83.03308054259847, 83.05349433007054, 82.92080471150214, 82.98204607391833, 83.23721841731906, 82.75749441172569, 82.61459789942127, 82.52273585579701, 82.74728751798965, 82.7268737305176, 83.1453563736948, 83.2474253110551, 82.5941841119492, 82.2063221499801, 82.21652904371612, 82.57377032447715, 82.52273585579701, 82.3083910873404, 82.87997713655804, 82.7268737305176, 82.3083910873404, 82.11446010635584, 82.2777704061323, 81.94094291284334, 81.86949465669113]",82.0585541656653,2.247016799985431,None
reward-effort-pgACC-TUS,R88533/RE002,A_1,1,2024-07-10_11h10.14.598,None,999,28,f,2.989898681640625,1,46,approach,normal,heart,None,90,80,77,accept,1.3798510000342503,success,77,2177,"[0.5307584742735244, 0.6736549865779348, 0.6940687740499935, 0.7655170302021985, 0.7655170302021985, 0.9492411174507263, 1.561654741612485, 2.3782062404948303, 2.898757821032325, 3.398895614097762, 3.8786196196911393, 4.858481418349954, 6.991722209180081, 9.175997468690353, 10.186479948557256, 11.931858777418269, 11.931858777418269, 14.963306217018973, 17.055719432904983, 18.719443111877762, 21.158890714788768, 23.598338317699774, 23.598338317699774, 25.25185510293652, 28.150612923968847, 31.41681891949823, 32.825370255070276, 37.19392077409082, 38.96992028415992, 38.96992028415992, 41.215436906086374, 44.55309115776795, 46.08412521817235, 48.646055545915715, 49.840262113031145, 51.66729609178039, 53.39226113316934, 54.16798505710757, 54.64770906270095, 55.1172261745583, 55.99501903585682, 55.96439835464872, 55.47446745531932, 55.09681238708624, 54.90288140610168, 54.72936421258918, 54.57626080654874, 54.57626080654874, 54.87226072489359, 55.49488124279138, 58.414052851295764, 60.383983342349424, 62.445775877027344, 64.11970644973614, 65.65074051014055, 65.72218876629276, 65.72218876629276, 66.47749890275892, 67.36549865779348, 68.0697743255795, 68.10039500678758, 68.44742939381257, 69.22315331775081, 70.21322201014564, 70.60108397211476, 70.61129086585079, 70.78480805936329, 71.71363538934196, 71.71363538934196, 72.10149735131107, 72.19335939493534, 72.68329029426475, 73.2548763434824, 74.0612209486287, 74.69404836026253, 74.86756555377502, 74.70425525399855, 75.10232410970369, 75.68411705265736, 75.77597909628163, 76.16384105825075, 76.19446173945883, 76.38839272044339, 76.40880650791544, 76.1842548457228, 75.94949628979413, 76.16384105825075, 76.43942718912353, 76.56190991395589, 76.92935808845294, 77.5417717126147, 77.50094413767059, 77.75611648107132, 78.27666806160882, 78.74618517346616, 78.73597827973013, 78.73597827973013, 79.00135751686689, 79.10342645422719, 79.03197819807498, 79.09321956049115, 79.61377114102865, 79.8689434844294, 80.21597787145438, 80.69570187704775, 81.23666724505732, 81.23666724505732, 81.18563277637718, 81.76742571933083, 82.04301185020363, 82.77790819919774, 83.2882528859992, 83.54342522939994, 83.69652863544039, 83.94149408510508, 83.62508037928818, 83.40052871709553, 83.4617700795117, 83.49239076071979, 83.54342522939994, 83.72714931664846, 83.88025272268891, 83.78839067906463, 83.8088044665367, 83.77818378532861, 83.75776999785656, 83.81901136027274, 83.76797689159258, 83.79859757280067, 83.82921825400875, 83.72714931664846, 83.72714931664846, 83.77818378532861, 83.83942514774478, 83.7067355291764, 83.7067355291764, 84.0537699162014, 84.17625264103376, 84.28852847213008, 84.24770089718596, 84.31914915333817, 84.37018362201832, 84.62535596541905, 84.62535596541905, 84.70701111530727, 84.9928041399161, 84.7478386902514, 85.18673512090066, 85.39087299562125, 85.39087299562125, 84.86011452134773, 84.68659732783522, 84.6457697528911, 84.49266634685067, 84.38039051575434, 84.33956294081023, 84.21708021597787, 84.17625264103376, 84.20687332224183, 84.20687332224183, 84.29873536586611, 84.38039051575434, 84.46204566564258, 84.48245945311463, 85.11528686474846, 85.53376950792565, 85.43170057056535, 85.42149367682933, 85.79914874506241, 86.0747348759352, 85.43170057056535, 85.35004542067712, 85.35004542067712, 84.52328702805875, 84.30894225960213, 83.65570106049626, 83.08411501127861, 82.92080471150214, 82.75749441172569, 82.78811509293377, 82.78811509293377, 83.06370122380656, 83.34949424841538, 84.09459749114552, 84.37018362201832, 84.76825247772345, 85.49294193298154, 85.47252814550947, 86.31970032559991, 87.47307931777122, 88.31004460412562, 89.04494095311973, 89.97376828309841, 90.41266471374767, 90.44328539495575, 90.69845773835648, 90.89238871934104, 90.89238871934104, 91.56604370591897, 91.91307809294398, 92.33156073612118, 93.04604329764324, 93.62783624059689, 93.61762934686087, 94.25045675849468, 94.9139048513366, 95.7202494564829, 95.7202494564829, 95.78149081889909, 95.71004256274688, 95.69983566901085, 95.68962877527481, 95.11804272605718, 94.99556000122483, 94.58728425178366, 93.35225010972411, 93.35225010972411, 93.46452594082044, 93.5257673032366, 93.31142253478, 93.23997427862778, 93.19914670368367, 93.0358364039072, 92.77045716677044, 92.57652618578588, 92.41321588600941, 92.14783664887266, 91.9539056678881, 91.93349188041603, 91.66811264327927, 91.52521613097487, 91.23942310636603, 90.65763016341238, 90.68825084462046, 90.68825084462046, 90.41266471374767, 89.81045798332194, 89.70838904596164, 89.61652700233738, 89.63694078980944]",92.20534856934681,4.788763500051573,None
reward-effort-pgACC-TUS,R88533/RE002,A_1,1,2024-07-10_11h10.14.598,None,999,28,f,2.989898681640625,1,47,approach,normal,heart,None,100,80,81,accept,2.302018499933183,failure,0,2177,"[4.052136813203638, 4.02151613199555, 4.02151613199555, 3.9500678758433447, 3.9398609821073154, 3.9398609821073154, 3.85820583221908, 3.735723107386729, 3.664274851234524, 3.664274851234524, 3.633654170026436, 3.57241280761026, 3.5826197013462893, 3.766343788594817, 4.02151613199555, 4.02151613199555, 4.266481581660253, 4.674757331101426, 5.501515723719801, 6.4609637349065565, 7.338756596205077, 8.094066732671246, 8.61461831320874, 9.022894062649915, 9.329100874730793, 9.67613526175579, 10.268135098445489, 11.390893409408715, 12.850479213660906, 15.647168097332939, 18.341788043644677, 21.189511395996856, 23.884131342308596, 25.854061833362252, 27.86481989936003, 29.82454349667766, 29.82454349667766, 31.09019831994529, 31.794473987731315, 33.478611454176146, 36.44881753136068, 37.96964469802905, 39.68440284568197, 41.46040235575107, 43.21598807834812, 44.491849795351776, 45.93102181213191, 47.20688352913558, 48.16633154032233, 48.16633154032233, 48.3296418400988, 49.0237106141488, 51.269227236075245, 53.39226113316934, 54.474191869188445, 55.38260541169506, 56.92384636583549, 59.5061904810509, 60.45543159850163, 59.83281108060384, 59.05708715666561, 58.781501025792814, 58.556949363600175, 57.81184612087004, 57.24026007165239, 57.18922560297225, 58.465087319975915, 60.29212129872516, 60.40439712982148, 60.40439712982148, 59.06729405040164, 59.34288018127444, 60.159431680156786, 60.159431680156786, 59.76136282445164, 59.679707674563396, 60.639155685750154, 61.01681075398324, 60.802465985526624, 61.09846590387148, 61.60881059067294, 61.60881059067294, 61.86398293407367, 62.53763792065161, 63.38481010074204, 64.16053402468027, 65.69156808508467, 67.48798138262583, 68.243291519092, 68.2126708378839, 68.2126708378839, 68.62094658732508, 68.89653271819786, 68.85570514325376, 69.1517050615986, 69.22315331775081, 69.41708429873536, 69.8457738356486, 69.8457738356486, 69.92742898553684, 69.95804966674491, 70.65211844079491, 71.74425607055005, 72.1423249262552, 72.26480765108755, 73.43860043073092, 74.24494503587724, 75.13294479091178, 75.75556530880957, 76.55170302021985, 77.60301307503087, 78.1337715493044, 78.1337715493044, 77.48053035019853, 77.83777163095955, 78.18480601798454, 78.61349555489778, 78.3072887428169, 78.00108193073602, 78.00108193073602, 78.20521980545661, 78.21542669919263, 78.79721964214632, 79.6648056097088, 80.96108111418452, 81.38977065109775, 81.74701193185878, 81.74701193185878, 81.90011533789921, 82.26756351239626, 82.28797729986833, 82.28797729986833, 82.2777704061323, 82.33901176854847, 82.33901176854847, 82.77790819919774, 82.80852888040583, 82.80852888040583, 82.92080471150214, 82.869770242822, 82.80852888040583, 82.87997713655804, 82.77790819919774, 82.78811509293377, 82.99225296765435, 83.06370122380656, 83.1147356924867, 83.00245986139039, 82.84935645534995, 82.83914956161391, 83.0126667551264, 83.0126667551264, 83.0126667551264, 82.75749441172569, 83.0126667551264, 82.80852888040583, 82.7677013054617, 82.58397721821318, 82.2777704061323, 82.2777704061323, 82.06342563767569, 82.13487389382789, 82.14508078756391, 83.08411501127861, 83.1147356924867, 83.69652863544039, 84.12521817235361, 83.50259765445583, 83.50259765445583, 83.0126667551264, 82.21652904371612, 80.2874261276066, 73.34673838710664, 62.262051789778816, 51.0446755738826, 41.85847121145622, 41.85847121145622, 33.75419758504894, 23.48606248660345, 17.035305645432924, 11.799169158849887, 9.186204362426382, 6.164963816561706, 4.562481500005103, 3.4601369765139376, 2.6231716901595337, 1.949516703581599, 1.949516703581599, 1.2452410357955763, 1.0206893736029314, 0.847172180090433, 0.74510324273014, 0.6022067304257296, 0.4797240055933778, 0.3980688557051432, 0.3368274932889674, 0.23475855592867426, 0.16331029977646902, 0.19393098098455697, 0.19393098098455697, 0.2143447684566156, 0.3470343870249967, 0.551172261745583, 0.551172261745583, 0.6226205178977882, 0.6940687740499935, 0.6940687740499935, 0.6634480928419054, 0.6736549865779348, 0.6022067304257296, 0.5715860492176416, 0.551172261745583, 0.551172261745583, 0.5409653680095536, 0.4797240055933778, 0.4797240055933778, 0.4797240055933778, 0.4899308993294071, 0.5103446868014657, 0.43889643064926054, 0.4286895369132312, 0.3980688557051432, 0.3980688557051432, 0.2755861308727915, 0.18372408724852765, 0.1428965123044104, 0.11227583109632246, 0.11227583109632246, 0.12248272483235177, 0.12248272483235177, 0.16331029977646902, 0.1428965123044104, 0.1428965123044104, 0.1531034060404397, 0.1531034060404397, 0.1326896185683811, 0.12248272483235177, 0.1428965123044104, 0.12248272483235177, 0.08165514988823451, 0.11227583109632246, 0.09186204362426383, 0.10206893736029313, 0.12248272483235177, 0.1428965123044104, 0.1428965123044104, 0.18372408724852765, 0.17351719351249836, 0.20413787472058625, 0.20413787472058625, 0.2245516621926449, 0.23475855592867426, 0.20413787472058625, 0.2245516621926449]",0,5.013161499984562,None
reward-effort-pgACC-TUS,R88533/RE002,A_1,1,2024-07-10_11h10.14.598,None,999,28,f,2.989898681640625,1,48,approach,normal,heart,None,65,80,97,reject,1.2163732999470085,None,0,2177,"null",None,None,None
reward-effort-pgACC-TUS,R88533/RE002,A_1,1,2024-07-10_11h10.14.598,None,999,28,f,2.989898681640625,1,49,approach,normal,heart,None,85,20,16,reject,1.8401802000589669,None,0,2177,"null",None,None,None
reward-effort-pgACC-TUS,R88533/RE002,A_1,1,2024-07-10_11h10.14.598,None,999,28,f,2.989898681640625,1,50,approach,normal,heart,None,75,80,87,accept,1.3652545000659302,success,87,2264,"[0.5409653680095536, 0.6226205178977882, 0.714482561522052, 0.847172180090433, 1.0308962673389608, 1.2962755044757228, 1.459585804252192, 1.78620640380513, 2.1128270033580683, 2.4496544966470353, 2.4496544966470353, 2.9089647147683544, 3.3376542516815855, 3.756136894858788, 4.02151613199555, 4.787033162197749, 4.787033162197749, 5.460688148775683, 7.042756677860226, 8.410480438488154, 9.349514662202852, 10.370204035805783, 11.778755371377828, 11.778755371377828, 14.167168505608688, 16.6780643646719, 18.709236218141733, 21.240545864677003, 23.3635797617711, 25.047717228215937, 28.2730956488012, 30.30426750227103, 31.28412930092985, 31.28412930092985, 31.97819807497984, 32.92743919243057, 33.93792167229747, 35.86702458840701, 37.37764486133935, 38.04109295418125, 38.04109295418125, 38.775989303175365, 39.8681269329305, 41.12357486246211, 42.37902279199371, 42.37902279199371, 43.86922927745399, 45.41047023159442, 46.716952629806165, 48.880814101844386, 50.21791718126423, 52.014330478805384, 52.014330478805384, 53.52495075173772, 54.20881263205168, 55.372398517959034, 58.12825982668694, 60.30232819246118, 61.578189909464854, 62.79281026405235, 64.38508568687291, 64.38508568687291, 65.57929225398834, 67.41653312647362, 68.6617741622692, 69.28439468016698, 69.69267042960816, 70.19280822267359, 70.71335980321109, 71.22370449001255, 71.2747389586927, 70.64191154705888, 70.48880814101844, 70.04991171036919, 70.46839435354639, 70.46839435354639, 70.61129086585079, 70.25404958508977, 70.20301511640963, 70.21322201014564, 70.9277045716677, 70.9277045716677, 72.8466005940412, 74.56135874169414, 75.68411705265736, 76.22508242066692, 76.37818582670735, 77.01101323834118, 77.01101323834118, 78.4808059363294, 79.4912884161963, 79.51170220366835, 79.52190909740439, 81.0937707327529, 81.52246026966613, 81.52246026966613, 81.14480520143304, 80.3282537025507, 80.64466740836761, 80.60383983342349, 80.46094332111909, 80.48135710859114, 80.65487430210364, 80.75694323946394, 80.08328825288599, 80.08328825288599, 79.8791503781654, 80.0118399967338, 80.22618476519041, 79.7668745470691, 79.23611607279557, 79.23611607279557, 78.49101283006542, 77.4703234564625, 76.87832361977279, 76.55170302021985, 76.69459953252426, 76.78646157614854, 76.01073765221031, 75.19418615332796, 75.19418615332796, 75.46977228420076, 75.6637032651853, 74.8267379788309, 73.96935890500444, 73.87749686138018, 74.01018647994856, 73.45901421820298, 73.10177293744195, 72.81597991283313, 71.99942841395078, 71.99942841395078, 70.88687699672359, 70.90729078419564, 70.74398048441918, 70.60108397211476, 70.02949792289712, 69.89680830432874, 69.89680830432874, 69.61101527971992, 69.45791187367948, 69.4272911924714, 69.17211884907066, 69.02922233676625, 68.82508446204567, 68.82508446204567, 68.25349841282802, 68.26370530656405, 68.35556735018832, 68.18205015667583, 67.82480887591478, 68.19225705041185, 68.71280863094934, 69.13129127412655, 69.38646361752728, 70.07032549784125, 70.07032549784125, 71.28494585242873, 74.02039337368458, 75.33708266563237, 75.75556530880957, 76.83749604482868, 78.36853010523306, 78.6543231298419, 77.81735784348749, 78.9401161544507, 80.16494340277424, 80.98149490165657, 80.98149490165657, 82.24714972492421, 83.19639084237494, 84.31914915333817, 85.25818337705286, 86.0747348759352, 86.92190705602563, 86.92190705602563, 89.25928572157635, 90.25956130770723, 90.05542343298664, 89.40218223388077, 89.41238912761679, 90.13707858287488, 90.31059577638737, 90.31059577638737, 90.01459585804253, 90.38204403253958, 90.8413542506609, 90.87197493186898, 90.58618190726017, 89.36135465893665, 89.41238912761679, 89.01432027191166, 87.83032059853225, 86.16659691955947, 85.45211435803742, 84.42121809069846, 84.42121809069846, 83.57404591060802, 81.77763261306687, 79.736253865861, 78.59308176742572, 77.26618558174191, 76.24549620813897, 75.40853092178457, 74.64301389158237, 74.64301389158237, 74.59197942290223, 72.89763506272136, 71.92798015779857, 71.41763547099711, 72.36687658844784]",82.53880226260371,3.999775799922645,None
